condsFile,taskVersion,taskReps,trialNum,phase,taskLoop.thisRepN,taskLoop.thisTrialN,taskLoop.thisN,taskLoop.thisIndex,trialsLoop.thisRepN,trialsLoop.thisTrialN,trialsLoop.thisN,trialsLoop.thisIndex,setupText.started,setupText.stopped,instructionText.started,instructionText.stopped,instructionResp.keys,instructionResp.rt,instructionResp.started,instructionResp.stopped,trialMouse.x,trialMouse.y,trialMouse.leftButton,trialMouse.midButton,trialMouse.rightButton,trialMouse.time,trialMouse.started,trialMouse.stopped,step,targetangle_deg,trialTarget.started,trialTarget.stopped,trialHome.started,trialHome.stopped,trialCursor.started,trialCursor.stopped,trialText.started,trialText.stopped,trialBuff.started,trialBuff.stopped,showAngle.started,showAngle.stopped,endText.started,endText.stopped,participant,taskVer,date,expName,psychopyVersion,frameRate,
famConds.xlsx,Familiarization,24,0,Align,0,0,0,0,0,0,0,0,10.497251699998742,None,10.915708599990467,None,space,0.33989579998888075,10.915708599990467,None,"[0.029861111111111113, 0.02847222222222222, 0.02847222222222222, 0.02847222222222222, 0.02847222222222222, 0.02847222222222222, 0.02847222222222222, 0.02847222222222222, 0.02847222222222222, 0.02847222222222222, 0.02847222222222222, 0.02847222222222222, 0.02847222222222222, 0.02847222222222222, 0.02847222222222222, 0.027083333333333334, 0.02638888888888889, 0.02638888888888889, 0.025694444444444443, 0.025, 0.024305555555555556, 0.02361111111111111, 0.022916666666666665, 0.022222222222222223, 0.021527777777777778, 0.02013888888888889, 0.019444444444444445, 0.01875, 0.01875, 0.01875, 0.018055555555555554, 0.018055555555555554, 0.018055555555555554, 0.018055555555555554, 0.018055555555555554, 0.018055555555555554, 0.018055555555555554, 0.018055555555555554, 0.018055555555555554, 0.018055555555555554, 0.018055555555555554, 0.018055555555555554, 0.018055555555555554, 0.016666666666666666, 0.01597222222222222, 0.015277777777777777, 0.015277777777777777, 0.013888888888888888, 0.013888888888888888, 0.013194444444444444, 0.013194444444444444, 0.013194444444444444, 0.013194444444444444, 0.013194444444444444, 0.013194444444444444, 0.013194444444444444, 0.0125, 0.009722222222222222, 0.00625, -0.001388888888888889, -0.008333333333333333, -0.013194444444444444, -0.017361111111111112, -0.022916666666666665, -0.027777777777777776, -0.03125, -0.035416666666666666, -0.03888888888888889, -0.043055555555555555, -0.044444444444444446, -0.04652777777777778, -0.04722222222222222, -0.04722222222222222, -0.04722222222222222, -0.04722222222222222, -0.04652777777777778, -0.04513888888888889, -0.04375, -0.043055555555555555, -0.04236111111111111, -0.04097222222222222, -0.04097222222222222, -0.03958333333333333, -0.03888888888888889, -0.03888888888888889, -0.03819444444444445, -0.0375, -0.03680555555555556, -0.03611111111111111, -0.035416666666666666, -0.034722222222222224, -0.034027777777777775, -0.034027777777777775, -0.03333333333333333, -0.03263888888888889, -0.03263888888888889, -0.03263888888888889, -0.03263888888888889, -0.03263888888888889, -0.03263888888888889, -0.03263888888888889, -0.03263888888888889, -0.03263888888888889, -0.03263888888888889, -0.03263888888888889, -0.03263888888888889, -0.03263888888888889, -0.03263888888888889, -0.03263888888888889, -0.03263888888888889, -0.03263888888888889, -0.03263888888888889, -0.03263888888888889, -0.03263888888888889, -0.03263888888888889, -0.03263888888888889, -0.03263888888888889, -0.03263888888888889, -0.03263888888888889, -0.03263888888888889, -0.03263888888888889, -0.03263888888888889, -0.03263888888888889, -0.03263888888888889, -0.03263888888888889, -0.03263888888888889, -0.03263888888888889, -0.03263888888888889]","[-0.03125, -0.03194444444444444, -0.03194444444444444, -0.03194444444444444, -0.03194444444444444, -0.03194444444444444, -0.03194444444444444, -0.03194444444444444, -0.03194444444444444, -0.03194444444444444, -0.03194444444444444, -0.03194444444444444, -0.03194444444444444, -0.03194444444444444, -0.03194444444444444, -0.03194444444444444, -0.03263888888888889, -0.03263888888888889, -0.03263888888888889, -0.03263888888888889, -0.03263888888888889, -0.03333333333333333, -0.03333333333333333, -0.034027777777777775, -0.034027777777777775, -0.034722222222222224, -0.035416666666666666, -0.035416666666666666, -0.035416666666666666, -0.035416666666666666, -0.035416666666666666, -0.035416666666666666, -0.035416666666666666, -0.035416666666666666, -0.035416666666666666, -0.035416666666666666, -0.035416666666666666, -0.035416666666666666, -0.035416666666666666, -0.035416666666666666, -0.035416666666666666, -0.035416666666666666, -0.035416666666666666, -0.034027777777777775, -0.03263888888888889, -0.03263888888888889, -0.03194444444444444, -0.03194444444444444, -0.03194444444444444, -0.03125, -0.03125, -0.03125, -0.03125, -0.03125, -0.03125, -0.03125, -0.03125, -0.030555555555555555, -0.029166666666666667, -0.027083333333333334, -0.025694444444444443, -0.025, -0.024305555555555556, -0.022916666666666665, -0.022222222222222223, -0.022222222222222223, -0.020833333333333332, -0.020833333333333332, -0.02013888888888889, -0.020833333333333332, -0.021527777777777778, -0.022222222222222223, -0.022222222222222223, -0.022222222222222223, -0.022222222222222223, -0.022222222222222223, -0.022222222222222223, -0.022222222222222223, -0.022916666666666665, -0.022916666666666665, -0.02361111111111111, -0.024305555555555556, -0.024305555555555556, -0.025694444444444443, -0.025694444444444443, -0.027083333333333334, -0.029166666666666667, -0.030555555555555555, -0.03125, -0.03333333333333333, -0.034722222222222224, -0.035416666666666666, -0.03680555555555556, -0.03819444444444445, -0.03958333333333333, -0.04027777777777778, -0.041666666666666664, -0.04236111111111111, -0.04375, -0.044444444444444446, -0.044444444444444446, -0.044444444444444446, -0.04513888888888889, -0.04513888888888889, -0.04513888888888889, -0.04513888888888889, -0.04513888888888889, -0.04513888888888889, -0.04513888888888889, -0.04513888888888889, -0.04513888888888889, -0.04513888888888889, -0.04513888888888889, -0.04513888888888889, -0.04513888888888889, -0.04513888888888889, -0.04513888888888889, -0.04513888888888889, -0.04513888888888889, -0.04513888888888889, -0.04513888888888889, -0.04513888888888889, -0.04513888888888889, -0.04513888888888889, -0.04513888888888889, -0.04513888888888889, -0.04513888888888889, -0.04513888888888889]","[0, 0, 0, 0, 0, 0, 0, 0, 0, 0, 0, 0, 0, 0, 0, 0, 0, 0, 0, 0, 0, 0, 0, 0, 0, 0, 0, 0, 0, 0, 0, 0, 0, 0, 0, 0, 0, 0, 0, 0, 0, 0, 0, 0, 0, 0, 0, 0, 0, 0, 0, 0, 0, 0, 0, 0, 0, 0, 0, 0, 0, 0, 0, 0, 0, 0, 0, 0, 0, 0, 0, 0, 0, 0, 0, 0, 0, 0, 0, 0, 0, 0, 0, 0, 0, 0, 0, 0, 0, 0, 0, 0, 0, 0, 0, 0, 0, 0, 0, 0, 0, 0, 0, 0, 0, 0, 0, 0, 0, 0, 0, 0, 0, 0, 0, 0, 0, 0, 0, 0, 0, 0, 0, 0, 0, 0, 0, 0]","[0, 0, 0, 0, 0, 0, 0, 0, 0, 0, 0, 0, 0, 0, 0, 0, 0, 0, 0, 0, 0, 0, 0, 0, 0, 0, 0, 0, 0, 0, 0, 0, 0, 0, 0, 0, 0, 0, 0, 0, 0, 0, 0, 0, 0, 0, 0, 0, 0, 0, 0, 0, 0, 0, 0, 0, 0, 0, 0, 0, 0, 0, 0, 0, 0, 0, 0, 0, 0, 0, 0, 0, 0, 0, 0, 0, 0, 0, 0, 0, 0, 0, 0, 0, 0, 0, 0, 0, 0, 0, 0, 0, 0, 0, 0, 0, 0, 0, 0, 0, 0, 0, 0, 0, 0, 0, 0, 0, 0, 0, 0, 0, 0, 0, 0, 0, 0, 0, 0, 0, 0, 0, 0, 0, 0, 0, 0, 0]","[0, 0, 0, 0, 0, 0, 0, 0, 0, 0, 0, 0, 0, 0, 0, 0, 0, 0, 0, 0, 0, 0, 0, 0, 0, 0, 0, 0, 0, 0, 0, 0, 0, 0, 0, 0, 0, 0, 0, 0, 0, 0, 0, 0, 0, 0, 0, 0, 0, 0, 0, 0, 0, 0, 0, 0, 0, 0, 0, 0, 0, 0, 0, 0, 0, 0, 0, 0, 0, 0, 0, 0, 0, 0, 0, 0, 0, 0, 0, 0, 0, 0, 0, 0, 0, 0, 0, 0, 0, 0, 0, 0, 0, 0, 0, 0, 0, 0, 0, 0, 0, 0, 0, 0, 0, 0, 0, 0, 0, 0, 0, 0, 0, 0, 0, 0, 0, 0, 0, 0, 0, 0, 0, 0, 0, 0, 0, 0]","[0.008873200014932081, 0.015156100009335205, 0.022405700001399964, 0.02945010000257753, 0.03695410001091659, 0.04341270000441, 0.05140260001644492, 0.05831330001819879, 0.06520930002443492, 0.07131359999766573, 0.08083700001589023, 0.08743480002158321, 0.09470460002194159, 0.1012990000017453, 0.10881960002006963, 0.11538790000486188, 0.12318799999775365, 0.129826900025364, 0.14050690000294708, 0.1478598000248894, 0.15529770002467558, 0.16259660001378506, 0.16948690000572242, 0.17630310001550242, 0.18428850002237596, 0.19204809999791905, 0.20216630000504665, 0.20954570002504624, 0.21741589999874122, 0.2252013000252191, 0.23198160002357326, 0.2396809000056237, 0.2458154000050854, 0.25255240002297796, 0.2584629000048153, 0.2657323000021279, 0.2716408999986015, 0.2787728999974206, 0.2846473000245169, 0.29195870002149604, 0.29874430000199936, 0.30562640001880936, 0.3128032000095118, 0.3226501000171993, 0.33105280000017956, 0.3377902000211179, 0.34715860002324916, 0.3546480000077281, 0.3625175000051968, 0.37051430001156405, 0.3772824000043329, 0.3849292000231799, 0.39168729999801144, 0.40001219999976456, 0.40690110001014546, 0.4142649999994319, 0.42239050002535805, 0.4300781000056304, 0.44350020002457313, 0.4519538000167813, 0.4611639000067953, 0.4700083000061568, 0.4788923000160139, 0.4865072000247892, 0.49407630000496283, 0.5010038000182249, 0.5098297000222374, 0.5228573000058532, 0.5302138999977615, 0.5385803000244778, 0.5481443000026047, 0.5547519000247121, 0.5622005000186618, 0.5686320000095293, 0.5756299000058789, 0.5828223999997135, 0.5902804000070319, 0.5976958000101149, 0.6056070000049658, 0.6133430000045337, 0.6201053000113461, 0.6275355000107083, 0.6344052000204101, 0.6425659000233281, 0.6490272000082768, 0.6571308000129648, 0.6643585000128951, 0.671448600012809, 0.6801939000142738, 0.687364500015974, 0.6943581000086851, 0.7011598000244703, 0.7087250000040513, 0.7157447000208776, 0.7234003000194207, 0.7299097000213806, 0.7371094000118319, 0.7450503000000026, 0.7519813000108115, 0.7598225000256207, 0.7666291000205092, 0.7739405000174884, 0.7810057000024244, 0.7879774000030011, 0.7943953000067268, 0.8013735999993514, 0.8076518000161741, 0.8146224000083748, 0.8215451000141911, 0.8294172000023536, 0.836374300008174, 0.8434601000044495, 0.8493949999974575, 0.8559679000172764, 0.8624523000034969, 0.8690851000137627, 0.8752504000149202, 0.8820858000253793, 0.8883524000120815, 0.8951315000012983, 0.9013049000059254, 0.9079409000114538, 0.9142605000233743, 0.9213302000134718, 0.9272199000115506, 0.9340613000094891, 0.9403168999997433, 0.9474930000142194]",11.285316800000146,None,"[1, 1, 2, 2, 2, 2, 2, 2, 2, 2, 2, 2, 2, 2, 2, 2, 2, 2, 2, 2, 2, 2, 2, 2, 2, 2, 2, 2, 2, 2, 2, 2, 2, 2, 2, 2, 2, 2, 2, 2, 2, 2, 2, 2, 2, 2, 2, 2, 2, 2, 2, 2, 2, 2, 2, 2, 2, 2, 2, 2, 2, 2, 2, 2, 2, 2, 2, 2, 2, 2, 2, 2, 2, 2, 2, 2, 2, 2, 2, 2, 2, 2, 2, 2, 2, 2, 2, 2, 2, 2, 2, 2, 2, 2, 2, 2, 2, 2, 2, 2, 2, 2, 2, 2, 2, 2, 2, 2, 2, 2, 2, 2, 2, 2, 2, 2, 2, 2, 2, 2, 2, 2, 2, 2, 2, 2, 2, 2]",40,11.285316800000146,None,11.285316800000146,None,11.285316800000146,None,11.285316800000146,None,11.285316800000146,None,11.285316800000146,None,,,test,1,2020_Jul_02_1948,tworatesteps,2020.1.3,226.0883326946048,
famConds.xlsx,Familiarization,24,1,Align,0,0,0,0,0,1,1,1,,,,,,,,,"[-0.03263888888888889, -0.03263888888888889, -0.03263888888888889, -0.03263888888888889, -0.03263888888888889, -0.03263888888888889, -0.03263888888888889, -0.03263888888888889, -0.03263888888888889, -0.03263888888888889, -0.03263888888888889, -0.03263888888888889, -0.03263888888888889, -0.03263888888888889, -0.03263888888888889, -0.03263888888888889, -0.03263888888888889, -0.03263888888888889, -0.03263888888888889, -0.03263888888888889, -0.03263888888888889, -0.03263888888888889, -0.03263888888888889, -0.03263888888888889, -0.03263888888888889, -0.03263888888888889, -0.03263888888888889, -0.03263888888888889, -0.03263888888888889, -0.03263888888888889, -0.03263888888888889, -0.03263888888888889, -0.03263888888888889, -0.03263888888888889, -0.03263888888888889, -0.03263888888888889, -0.03263888888888889, -0.03263888888888889, -0.03263888888888889, -0.03263888888888889, -0.03263888888888889, -0.03263888888888889, -0.03263888888888889, -0.03263888888888889, -0.03263888888888889, -0.03263888888888889, -0.03263888888888889, -0.03263888888888889, -0.03263888888888889, -0.03263888888888889, -0.03263888888888889, -0.03263888888888889, -0.03263888888888889, -0.029166666666666667, -0.025, -0.022222222222222223, -0.02013888888888889, -0.017361111111111112, -0.015277777777777777, -0.013194444444444444, -0.011805555555555555, -0.010416666666666666, -0.009027777777777777, -0.006944444444444444, -0.00625, -0.00625, -0.005555555555555556, -0.005555555555555556, -0.005555555555555556, -0.005555555555555556, -0.005555555555555556, -0.005555555555555556, -0.005555555555555556, -0.005555555555555556, -0.005555555555555556, -0.005555555555555556, -0.005555555555555556, -0.005555555555555556, -0.005555555555555556, -0.005555555555555556, -0.005555555555555556, -0.005555555555555556, -0.005555555555555556, -0.005555555555555556, -0.005555555555555556, -0.005555555555555556, -0.005555555555555556, -0.005555555555555556, -0.005555555555555556, -0.005555555555555556, -0.005555555555555556, -0.005555555555555556, -0.005555555555555556, -0.005555555555555556, -0.005555555555555556, -0.005555555555555556, -0.005555555555555556, -0.005555555555555556, -0.005555555555555556, -0.005555555555555556, -0.005555555555555556, -0.005555555555555556, -0.005555555555555556, -0.005555555555555556, -0.005555555555555556, -0.005555555555555556, -0.005555555555555556, -0.005555555555555556, -0.005555555555555556, -0.005555555555555556, -0.005555555555555556, -0.005555555555555556, -0.005555555555555556, -0.005555555555555556, -0.005555555555555556, -0.005555555555555556, -0.005555555555555556, -0.005555555555555556, -0.005555555555555556, -0.005555555555555556, -0.005555555555555556, -0.005555555555555556, -0.005555555555555556]","[-0.04513888888888889, -0.04513888888888889, -0.04513888888888889, -0.04513888888888889, -0.04513888888888889, -0.04513888888888889, -0.04513888888888889, -0.04513888888888889, -0.04513888888888889, -0.04513888888888889, -0.04513888888888889, -0.04513888888888889, -0.04513888888888889, -0.04513888888888889, -0.04513888888888889, -0.04513888888888889, -0.04513888888888889, -0.04513888888888889, -0.04513888888888889, -0.04513888888888889, -0.04513888888888889, -0.04513888888888889, -0.04513888888888889, -0.04513888888888889, -0.04513888888888889, -0.04513888888888889, -0.04513888888888889, -0.04513888888888889, -0.04513888888888889, -0.04513888888888889, -0.04513888888888889, -0.04513888888888889, -0.04513888888888889, -0.04513888888888889, -0.04513888888888889, -0.04513888888888889, -0.04513888888888889, -0.04513888888888889, -0.04513888888888889, -0.04513888888888889, -0.04513888888888889, -0.04513888888888889, -0.04513888888888889, -0.04513888888888889, -0.04513888888888889, -0.04513888888888889, -0.04513888888888889, -0.04513888888888889, -0.04513888888888889, -0.04513888888888889, -0.04513888888888889, -0.04513888888888889, -0.04513888888888889, -0.04513888888888889, -0.041666666666666664, -0.0375, -0.03333333333333333, -0.02847222222222222, -0.024305555555555556, -0.020833333333333332, -0.016666666666666666, -0.011805555555555555, -0.009722222222222222, -0.008333333333333333, -0.007638888888888889, -0.007638888888888889, -0.007638888888888889, -0.007638888888888889, -0.007638888888888889, -0.007638888888888889, -0.007638888888888889, -0.007638888888888889, -0.007638888888888889, -0.007638888888888889, -0.007638888888888889, -0.007638888888888889, -0.007638888888888889, -0.007638888888888889, -0.007638888888888889, -0.007638888888888889, -0.007638888888888889, -0.007638888888888889, -0.007638888888888889, -0.007638888888888889, -0.007638888888888889, -0.007638888888888889, -0.007638888888888889, -0.007638888888888889, -0.007638888888888889, -0.007638888888888889, -0.007638888888888889, -0.007638888888888889, -0.007638888888888889, -0.007638888888888889, -0.007638888888888889, -0.007638888888888889, -0.007638888888888889, -0.007638888888888889, -0.007638888888888889, -0.007638888888888889, -0.006944444444444444, -0.006944444444444444, -0.006944444444444444, -0.006944444444444444, -0.006944444444444444, -0.006944444444444444, -0.006944444444444444, -0.006944444444444444, -0.006944444444444444, -0.006944444444444444, -0.006944444444444444, -0.006944444444444444, -0.006944444444444444, -0.006944444444444444, -0.006944444444444444, -0.006944444444444444, -0.006944444444444444, -0.006944444444444444, -0.006944444444444444, -0.006944444444444444, -0.006944444444444444, -0.006944444444444444, -0.006944444444444444]","[0, 0, 0, 0, 0, 0, 0, 0, 0, 0, 0, 0, 0, 0, 0, 0, 0, 0, 0, 0, 0, 0, 0, 0, 0, 0, 0, 0, 0, 0, 0, 0, 0, 0, 0, 0, 0, 0, 0, 0, 0, 0, 0, 0, 0, 0, 0, 0, 0, 0, 0, 0, 0, 0, 0, 0, 0, 0, 0, 0, 0, 0, 0, 0, 0, 0, 0, 0, 0, 0, 0, 0, 0, 0, 0, 0, 0, 0, 0, 0, 0, 0, 0, 0, 0, 0, 0, 0, 0, 0, 0, 0, 0, 0, 0, 0, 0, 0, 0, 0, 0, 0, 0, 0, 0, 0, 0, 0, 0, 0, 0, 0, 0, 0, 0, 0, 0, 0, 0, 0, 0, 0, 0]","[0, 0, 0, 0, 0, 0, 0, 0, 0, 0, 0, 0, 0, 0, 0, 0, 0, 0, 0, 0, 0, 0, 0, 0, 0, 0, 0, 0, 0, 0, 0, 0, 0, 0, 0, 0, 0, 0, 0, 0, 0, 0, 0, 0, 0, 0, 0, 0, 0, 0, 0, 0, 0, 0, 0, 0, 0, 0, 0, 0, 0, 0, 0, 0, 0, 0, 0, 0, 0, 0, 0, 0, 0, 0, 0, 0, 0, 0, 0, 0, 0, 0, 0, 0, 0, 0, 0, 0, 0, 0, 0, 0, 0, 0, 0, 0, 0, 0, 0, 0, 0, 0, 0, 0, 0, 0, 0, 0, 0, 0, 0, 0, 0, 0, 0, 0, 0, 0, 0, 0, 0, 0, 0]","[0, 0, 0, 0, 0, 0, 0, 0, 0, 0, 0, 0, 0, 0, 0, 0, 0, 0, 0, 0, 0, 0, 0, 0, 0, 0, 0, 0, 0, 0, 0, 0, 0, 0, 0, 0, 0, 0, 0, 0, 0, 0, 0, 0, 0, 0, 0, 0, 0, 0, 0, 0, 0, 0, 0, 0, 0, 0, 0, 0, 0, 0, 0, 0, 0, 0, 0, 0, 0, 0, 0, 0, 0, 0, 0, 0, 0, 0, 0, 0, 0, 0, 0, 0, 0, 0, 0, 0, 0, 0, 0, 0, 0, 0, 0, 0, 0, 0, 0, 0, 0, 0, 0, 0, 0, 0, 0, 0, 0, 0, 0, 0, 0, 0, 0, 0, 0, 0, 0, 0, 0, 0, 0]","[0.005479999992530793, 0.011833199998363853, 0.01909620000515133, 0.02597700001206249, 0.03323120001005009, 0.04007099999580532, 0.04745169999659993, 0.05391670000972226, 0.06157359998906031, 0.0688304000068456, 0.07594189999508671, 0.08465559998876415, 0.09149399999296293, 0.09885149999172427, 0.10617159999674186, 0.11314279999351129, 0.11975869999150746, 0.12644679998629726, 0.13295150001067668, 0.1403569999965839, 0.14656610001111403, 0.1532729000027757, 0.15968740000971593, 0.16659849998541176, 0.17258109999238513, 0.17931889998726547, 0.1855935000057798, 0.19202990000485443, 0.19852579999133013, 0.20572729999548756, 0.2117664999968838, 0.21867820000625215, 0.22464179998496547, 0.23197540000546724, 0.2387899000023026, 0.24567209999077022, 0.25161999999545515, 0.2583120999915991, 0.2646880999964196, 0.27143269998487085, 0.277816999994684, 0.2849735000054352, 0.2915363000065554, 0.29823620000388473, 0.30456270001013763, 0.31147660000715405, 0.3175498000055086, 0.3249632999941241, 0.3319315999979153, 0.33898810000391677, 0.3457433999865316, 0.3525909000018146, 0.3586123999848496, 0.3666785999957938, 0.374665899988031, 0.381643200002145, 0.39085830000112765, 0.3992437999986578, 0.40721159998793155, 0.4141816000046674, 0.42333819999475963, 0.4338389000040479, 0.44589939998695627, 0.4557749000086915, 0.46325900001102127, 0.4709359999978915, 0.4780578000063542, 0.48616169998422265, 0.49245890000020154, 0.4993735000025481, 0.5056561999954283, 0.5127476000052411, 0.5195840999949723, 0.5265245999908075, 0.5325695000065025, 0.5393234000075608, 0.5453862999856938, 0.5521864999900572, 0.5583633999922313, 0.565169599984074, 0.5713621999893803, 0.5784571999975014, 0.5843197999929544, 0.5915867000003345, 0.5984504999942146, 0.6050705999950878, 0.6114419999939855, 0.6182262999936938, 0.6245238999836147, 0.6313941999978852, 0.6374152000062168, 0.6444274999957997, 0.6503157000115607, 0.657390000007581, 0.6632909000036307, 0.6710503000067547, 0.6773649000097066, 0.684841599984793, 0.6913870999997016, 0.6981924999854527, 0.7048191000067163, 0.7120242000091821, 0.7182971999864094, 0.7252131999994162, 0.7315561999857891, 0.7382087000005413, 0.7442060000030324, 0.751178800011985, 0.7573247000109404, 0.7644235999905504, 0.7703059999912512, 0.7773510999977589, 0.7832877000037115, 0.790436100010993, 0.7972226999991108, 0.8042912000091746, 0.8102157000103034, 0.8171137000026647, 0.8233654999930877, 0.8300478000019211, 0.8363461999979336, 0.84354020000319, 0.8506197000097018]",12.236986100004287,None,"[1, 1, 1, 1, 1, 1, 1, 1, 1, 1, 1, 1, 1, 1, 1, 1, 1, 1, 1, 1, 1, 1, 1, 1, 1, 1, 1, 1, 1, 1, 1, 1, 1, 1, 1, 1, 1, 1, 1, 1, 1, 1, 1, 1, 1, 1, 1, 1, 1, 1, 1, 1, 1, 1, 1, 1, 2, 2, 2, 2, 2, 2, 2, 2, 2, 2, 2, 2, 2, 2, 2, 2, 2, 2, 2, 2, 2, 2, 2, 2, 2, 2, 2, 2, 2, 2, 2, 2, 2, 2, 2, 2, 2, 2, 2, 2, 2, 2, 2, 2, 2, 2, 2, 2, 2, 2, 2, 2, 2, 2, 2, 2, 2, 2, 2, 2, 2, 2, 2, 2, 2, 2, 2]",50,12.236986100004287,None,12.236986100004287,None,12.236986100004287,None,12.236986100004287,None,12.236986100004287,None,12.236986100004287,None,,,test,1,2020_Jul_02_1948,tworatesteps,2020.1.3,226.0883326946048,
famConds.xlsx,Familiarization,24,2,Align,0,0,0,0,0,2,2,2,,,,,,,,,"[-0.005555555555555556, -0.005555555555555556, -0.005555555555555556, -0.005555555555555556, -0.005555555555555556, -0.005555555555555556, -0.005555555555555556, -0.005555555555555556, -0.005555555555555556, -0.005555555555555556, -0.005555555555555556, -0.005555555555555556, -0.005555555555555556, -0.005555555555555556, -0.005555555555555556, -0.005555555555555556, -0.005555555555555556, -0.005555555555555556, -0.005555555555555556, -0.005555555555555556, -0.005555555555555556, -0.005555555555555556, -0.005555555555555556, -0.005555555555555556, -0.005555555555555556, -0.005555555555555556, -0.005555555555555556, -0.005555555555555556, -0.005555555555555556, -0.005555555555555556, -0.005555555555555556, -0.005555555555555556, -0.005555555555555556, -0.005555555555555556, -0.005555555555555556, -0.005555555555555556, -0.005555555555555556, -0.005555555555555556, -0.005555555555555556, -0.005555555555555556, -0.004861111111111111, -0.004861111111111111, -0.004861111111111111, -0.004861111111111111, -0.004861111111111111, -0.004861111111111111, -0.004861111111111111, -0.004861111111111111, -0.004861111111111111, -0.004861111111111111, -0.004861111111111111, -0.004861111111111111]","[-0.006944444444444444, -0.006944444444444444, -0.006944444444444444, -0.006944444444444444, -0.006944444444444444, -0.006944444444444444, -0.006944444444444444, -0.006944444444444444, -0.006944444444444444, -0.006944444444444444, -0.006944444444444444, -0.006944444444444444, -0.006944444444444444, -0.006944444444444444, -0.006944444444444444, -0.006944444444444444, -0.006944444444444444, -0.006944444444444444, -0.006944444444444444, -0.006944444444444444, -0.006944444444444444, -0.006944444444444444, -0.006944444444444444, -0.006944444444444444, -0.006944444444444444, -0.006944444444444444, -0.006944444444444444, -0.006944444444444444, -0.006944444444444444, -0.006944444444444444, -0.006944444444444444, -0.006944444444444444, -0.006944444444444444, -0.006944444444444444, -0.006944444444444444, -0.006944444444444444, -0.006944444444444444, -0.006944444444444444, -0.006944444444444444, -0.006944444444444444, -0.006944444444444444, -0.006944444444444444, -0.006944444444444444, -0.006944444444444444, -0.006944444444444444, -0.006944444444444444, -0.006944444444444444, -0.006944444444444444, -0.006944444444444444, -0.006944444444444444, -0.006944444444444444, -0.006944444444444444]","[0, 0, 0, 0, 0, 0, 0, 0, 0, 0, 0, 0, 0, 0, 0, 0, 0, 0, 0, 0, 0, 0, 0, 0, 0, 0, 0, 0, 0, 0, 0, 0, 0, 0, 0, 0, 0, 0, 0, 0, 0, 0, 0, 0, 0, 0, 0, 0, 0, 0, 0, 0]","[0, 0, 0, 0, 0, 0, 0, 0, 0, 0, 0, 0, 0, 0, 0, 0, 0, 0, 0, 0, 0, 0, 0, 0, 0, 0, 0, 0, 0, 0, 0, 0, 0, 0, 0, 0, 0, 0, 0, 0, 0, 0, 0, 0, 0, 0, 0, 0, 0, 0, 0, 0]","[0, 0, 0, 0, 0, 0, 0, 0, 0, 0, 0, 0, 0, 0, 0, 0, 0, 0, 0, 0, 0, 0, 0, 0, 0, 0, 0, 0, 0, 0, 0, 0, 0, 0, 0, 0, 0, 0, 0, 0, 0, 0, 0, 0, 0, 0, 0, 0, 0, 0, 0, 0]","[0.0046270999882835895, 0.010804399993503466, 0.017879599996376783, 0.023685799998929724, 0.030791800003498793, 0.03689160000067204, 0.044536200002767146, 0.05058529999223538, 0.05724299998837523, 0.06393740000203252, 0.07778180000605062, 0.08468939998419955, 0.09130219998769462, 0.09931419999338686, 0.10707669999101199, 0.1149132999998983, 0.12268889998085797, 0.12949180000578053, 0.13823119999142364, 0.147372000006726, 0.15412580000702292, 0.16279380000196397, 0.1700561000034213, 0.17731719999574125, 0.18332720000762492, 0.1903800999862142, 0.19649159998516552, 0.2038219999813009, 0.21095340000465512, 0.2184107000066433, 0.2273595999868121, 0.2343887999886647, 0.24135709999245591, 0.2474600999848917, 0.2544023999944329, 0.26046610000776127, 0.2676214999810327, 0.2736805999884382, 0.2803502999886405, 0.2871906000073068, 0.2947195000015199, 0.3016600999981165, 0.3082630999851972, 0.3143848000036087, 0.32118179998360574, 0.32750009998562746, 0.33421860000817105, 0.3405518000072334, 0.34726720000617206, 0.35343550000106916, 0.3605909000034444, 0.36668499998631887]",13.093620800005738,None,"[1, 1, 2, 2, 2, 2, 2, 2, 2, 2, 2, 2, 2, 2, 2, 2, 2, 2, 2, 2, 2, 2, 2, 2, 2, 2, 2, 2, 2, 2, 2, 2, 2, 2, 2, 2, 2, 2, 2, 2, 2, 2, 2, 2, 2, 2, 2, 2, 2, 2, 2, 2]",130,13.093620800005738,None,13.093620800005738,None,13.093620800005738,None,13.093620800005738,None,13.093620800005738,None,13.093620800005738,None,,,test,1,2020_Jul_02_1948,tworatesteps,2020.1.3,226.0883326946048,
famConds.xlsx,Familiarization,24,3,Align,0,0,0,0,0,3,3,3,,,,,,,,,"[-0.004861111111111111, -0.004861111111111111, -0.004861111111111111, -0.004861111111111111, -0.004861111111111111, -0.004861111111111111, -0.004861111111111111, -0.004861111111111111, -0.004861111111111111, -0.004861111111111111, -0.004861111111111111, -0.004861111111111111, -0.004861111111111111, -0.004861111111111111, -0.004861111111111111, -0.004861111111111111, -0.004861111111111111, -0.004861111111111111, -0.004861111111111111, -0.004861111111111111, -0.004861111111111111, -0.004861111111111111, -0.004861111111111111, -0.004861111111111111, -0.004861111111111111, -0.004861111111111111, -0.004861111111111111, -0.004861111111111111, -0.002777777777777778, -0.002777777777777778, -0.007638888888888889, -0.006944444444444444, -0.00625, -0.00625, -0.00625, -0.00625, -0.00625, -0.00625, -0.00625, -0.00625, -0.00625, -0.00625, -0.00625, -0.00625, -0.00625, -0.00625, -0.00625, -0.00625, -0.00625, -0.00625, -0.00625, -0.00625, -0.00625, -0.00625, -0.00625, -0.00625, -0.00625, -0.00625]","[-0.006944444444444444, -0.006944444444444444, -0.006944444444444444, -0.006944444444444444, -0.006944444444444444, -0.006944444444444444, -0.006944444444444444, -0.006944444444444444, -0.006944444444444444, -0.006944444444444444, -0.006944444444444444, -0.006944444444444444, -0.006944444444444444, -0.006944444444444444, -0.006944444444444444, -0.006944444444444444, -0.006944444444444444, -0.006944444444444444, -0.006944444444444444, -0.006944444444444444, -0.006944444444444444, -0.006944444444444444, -0.006944444444444444, -0.006944444444444444, -0.006944444444444444, -0.006944444444444444, -0.006944444444444444, -0.006944444444444444, -0.00625, -0.007638888888888889, -0.009722222222222222, -0.009722222222222222, -0.009722222222222222, -0.009722222222222222, -0.009722222222222222, -0.009722222222222222, -0.009722222222222222, -0.009722222222222222, -0.009722222222222222, -0.009722222222222222, -0.009722222222222222, -0.009722222222222222, -0.009722222222222222, -0.009722222222222222, -0.009722222222222222, -0.009722222222222222, -0.009722222222222222, -0.009722222222222222, -0.009722222222222222, -0.009722222222222222, -0.009722222222222222, -0.009722222222222222, -0.009722222222222222, -0.009722222222222222, -0.009722222222222222, -0.009722222222222222, -0.009722222222222222, -0.009722222222222222]","[0, 0, 0, 0, 0, 0, 0, 0, 0, 0, 0, 0, 0, 0, 0, 0, 0, 0, 0, 0, 0, 0, 0, 0, 0, 0, 0, 0, 0, 0, 0, 0, 0, 0, 0, 0, 0, 0, 0, 0, 0, 0, 0, 0, 0, 0, 0, 0, 0, 0, 0, 0, 0, 0, 0, 0, 0, 0]","[0, 0, 0, 0, 0, 0, 0, 0, 0, 0, 0, 0, 0, 0, 0, 0, 0, 0, 0, 0, 0, 0, 0, 0, 0, 0, 0, 0, 0, 0, 0, 0, 0, 0, 0, 0, 0, 0, 0, 0, 0, 0, 0, 0, 0, 0, 0, 0, 0, 0, 0, 0, 0, 0, 0, 0, 0, 0]","[0, 0, 0, 0, 0, 0, 0, 0, 0, 0, 0, 0, 0, 0, 0, 0, 0, 0, 0, 0, 0, 0, 0, 0, 0, 0, 0, 0, 0, 0, 0, 0, 0, 0, 0, 0, 0, 0, 0, 0, 0, 0, 0, 0, 0, 0, 0, 0, 0, 0, 0, 0, 0, 0, 0, 0, 0, 0]","[0.004852900019614026, 0.011332399997627363, 0.01849490002496168, 0.024913800007198006, 0.03249270000378601, 0.03925080000772141, 0.0462423000135459, 0.05461320001631975, 0.061486100021284074, 0.06955810001818463, 0.07586050001555122, 0.0842179000028409, 0.09049940001568757, 0.09794050001073629, 0.10500410001259297, 0.11211870002443902, 0.11841180000919849, 0.12572090001776814, 0.13276150001911446, 0.13957540001138113, 0.1456659999967087, 0.15260010000201873, 0.15855700001702644, 0.16602550001698546, 0.17245460001868196, 0.1795410000195261, 0.1850957999995444, 0.19286000001011416, 0.2039807999972254, 0.21320850000483915, 0.22220290001132526, 0.23142680001910776, 0.23771830002078786, 0.24526620001415722, 0.2519670000183396, 0.2591174000117462, 0.2653076999995392, 0.2725440000067465, 0.2799937000090722, 0.28658050001831725, 0.2941471000085585, 0.3003581000084523, 0.30677160000777803, 0.3134667999984231, 0.31917560001602396, 0.3258602000132669, 0.33233600002131425, 0.33863559999736026, 0.3453452000103425, 0.3519310000119731, 0.3583270000235643, 0.3649236000201199, 0.37119890001486056, 0.3779785000078846, 0.38419940002495423, 0.39061750000109896, 0.39727690001018345, 0.4043606000195723]",13.466133499983698,None,"[1, 1, 2, 2, 2, 2, 2, 2, 2, 2, 2, 2, 2, 2, 2, 2, 2, 2, 2, 2, 2, 2, 2, 2, 2, 2, 2, 2, 2, 2, 2, 2, 2, 2, 2, 2, 2, 2, 2, 2, 2, 2, 2, 2, 2, 2, 2, 2, 2, 2, 2, 2, 2, 2, 2, 2, 2, 2]",140,13.466133499983698,None,13.466133499983698,None,13.466133499983698,None,13.466133499983698,None,13.466133499983698,None,13.466133499983698,None,,,test,1,2020_Jul_02_1948,tworatesteps,2020.1.3,226.0883326946048,
famConds.xlsx,Familiarization,24,4,Align,0,0,0,0,0,4,4,4,,,,,,,,,"[-0.00625, -0.00625, -0.00625, -0.00625, -0.00625, -0.00625, -0.00625, -0.00625, -0.00625, -0.00625, -0.00625, -0.00625, -0.00625, -0.00625, -0.00625, -0.00625, -0.00625, -0.00625, -0.00625, -0.00625]","[-0.009722222222222222, -0.009722222222222222, -0.009722222222222222, -0.009722222222222222, -0.009722222222222222, -0.009722222222222222, -0.009722222222222222, -0.009722222222222222, -0.009722222222222222, -0.009722222222222222, -0.009722222222222222, -0.009722222222222222, -0.009722222222222222, -0.009722222222222222, -0.009722222222222222, -0.009722222222222222, -0.009722222222222222, -0.009722222222222222, -0.009722222222222222, -0.009722222222222222]","[0, 0, 0, 0, 0, 0, 0, 0, 0, 0, 0, 0, 0, 0, 0, 0, 0, 0, 0, 0]","[0, 0, 0, 0, 0, 0, 0, 0, 0, 0, 0, 0, 0, 0, 0, 0, 0, 0, 0, 0]","[0, 0, 0, 0, 0, 0, 0, 0, 0, 0, 0, 0, 0, 0, 0, 0, 0, 0, 0, 0]","[0.005121399997733533, 0.01639850001083687, 0.023297100007766858, 0.02910320000955835, 0.03583209999487735, 0.042085900000529364, 0.049123300006613135, 0.05512929998803884, 0.06209379999199882, 0.06820730000617914, 0.07505250000394881, 0.08133220000308938, 0.08924169998499565, 0.09543300000950694, 0.10293749999254942, 0.1099959000130184, 0.11695520000648685, 0.12470990000292659, 0.13180719999945723, 0.14039029998821206]",13.881417199998396,None,"[1, 1, 2, 2, 2, 2, 2, 2, 2, 2, 2, 2, 2, 2, 2, 2, 2, 2, 2, 2]",40,13.881417199998396,None,13.881417199998396,None,13.881417199998396,None,13.881417199998396,None,13.881417199998396,None,13.881417199998396,None,,,test,1,2020_Jul_02_1948,tworatesteps,2020.1.3,226.0883326946048,
famConds.xlsx,Familiarization,24,5,Align,0,0,0,0,0,5,5,5,,,,,,,,,"[-0.00625, -0.00625, -0.00625, -0.00625, -0.00625, -0.00625, -0.00625, -0.00625]","[-0.009722222222222222, -0.009722222222222222, -0.009722222222222222, -0.009722222222222222, -0.009722222222222222, -0.009722222222222222, -0.009722222222222222, -0.009722222222222222]","[0, 0, 0, 0, 0, 0, 0, 0]","[0, 0, 0, 0, 0, 0, 0, 0]","[0, 0, 0, 0, 0, 0, 0, 0]","[0.0052001000149175525, 0.011507399991387501, 0.01998410001397133, 0.026325399987399578, 0.03349719999823719, 0.03927599999587983, 0.0461549999890849, 0.052620000002207235]",14.022789999988163,None,"[1, 1, 2, 2, 2, 2, 2, 2]",50,14.022789999988163,None,14.022789999988163,None,14.022789999988163,None,14.022789999988163,None,14.022789999988163,None,14.022789999988163,None,,,test,1,2020_Jul_02_1948,tworatesteps,2020.1.3,226.0883326946048,
famConds.xlsx,Familiarization,24,6,Align,0,0,0,0,0,6,6,6,,,,,,,,,"[-0.00625, -0.00625]","[-0.009722222222222222, -0.009722222222222222]","[0, 0]","[0, 0]","[0, 0]","[0.003982399997767061, 0.01065579999703914]",14.080659300001571,None,"[1, 1]",130,14.080659300001571,None,14.080659300001571,None,14.080659300001571,None,14.080659300001571,None,14.080659300001571,None,14.080659300001571,None,,,test,1,2020_Jul_02_1948,tworatesteps,2020.1.3,226.0883326946048,
famConds.xlsx,Familiarization,24,7,Align,0,0,0,0,0,7,7,7,,,,,,,,,"[-0.00625, -0.00625, -0.00625, -0.00625, -0.00625]","[-0.009722222222222222, -0.009722222222222222, -0.009722222222222222, -0.009722222222222222, -0.009722222222222222]","[0, 0, 0, 0, 0]","[0, 0, 0, 0, 0]","[0, 0, 0, 0, 0]","[0.004720099997939542, 0.012694199976976961, 0.019540099980076775, 0.026271399983670563, 0.03276390000246465]",14.100838599988492,None,"[1, 1, 2, 2, 2]",140,14.100838599988492,None,14.100838599988492,None,14.100838599988492,None,14.100838599988492,None,14.100838599988492,None,14.100838599988492,None,,,test,1,2020_Jul_02_1948,tworatesteps,2020.1.3,226.0883326946048,
famConds.xlsx,Familiarization,24,8,Align,0,0,0,0,0,8,8,8,,,,,,,,,"[-0.00625, -0.00625, -0.00625, -0.00625, -0.00625, -0.00625, -0.00625, -0.00625, -0.00625, -0.00625, -0.00625, -0.00625, -0.00625, -0.00625, -0.00625, -0.00625, -0.00625]","[-0.009722222222222222, -0.009722222222222222, -0.009722222222222222, -0.009722222222222222, -0.009722222222222222, -0.009722222222222222, -0.009722222222222222, -0.009722222222222222, -0.009722222222222222, -0.009722222222222222, -0.009722222222222222, -0.009722222222222222, -0.009722222222222222, -0.009722222222222222, -0.009722222222222222, -0.009722222222222222, -0.009722222222222222]","[0, 0, 0, 0, 0, 0, 0, 0, 0, 0, 0, 0, 0, 0, 0, 0, 0]","[0, 0, 0, 0, 0, 0, 0, 0, 0, 0, 0, 0, 0, 0, 0, 0, 0]","[0, 0, 0, 0, 0, 0, 0, 0, 0, 0, 0, 0, 0, 0, 0, 0, 0]","[0.006167799991089851, 0.015677199990022928, 0.025732899986905977, 0.03298899999936111, 0.04052499998942949, 0.04751340000075288, 0.05508890000055544, 0.061504999990575016, 0.06876939997891895, 0.07619049999630079, 0.08354609998059459, 0.09212579997256398, 0.09846909999032505, 0.10628899998846464, 0.1124217999749817, 0.1205222999851685, 0.12789979999070056]",14.14248719997704,None,"[1, 1, 2, 2, 2, 2, 2, 2, 2, 2, 2, 2, 2, 2, 2, 2, 2]",40,14.14248719997704,None,14.14248719997704,None,14.14248719997704,None,14.14248719997704,None,14.14248719997704,None,14.14248719997704,None,,,test,1,2020_Jul_02_1948,tworatesteps,2020.1.3,226.0883326946048,
famConds.xlsx,Familiarization,24,9,Align,0,0,0,0,0,9,9,9,,,,,,,,,"[-0.00625, -0.00625, -0.00625]","[-0.009722222222222222, -0.009722222222222222, -0.009722222222222222]","[0, 0, 0]","[0, 0, 0]","[0, 0, 0]","[0.00457380001898855, 0.01182469999184832, 0.018650999991223216]",14.273478099989006,None,"[1, 1, 2]",50,14.273478099989006,None,14.273478099989006,None,14.273478099989006,None,14.273478099989006,None,14.273478099989006,None,14.273478099989006,None,,,test,1,2020_Jul_02_1948,tworatesteps,2020.1.3,226.0883326946048,
famConds.xlsx,Familiarization,24,10,Align,0,0,0,0,0,10,10,10,,,,,,,,,"[-0.00625, -0.00625, -0.00625, -0.00625, -0.00625]","[-0.009722222222222222, -0.009722222222222222, -0.009722222222222222, -0.009722222222222222, -0.009722222222222222]","[0, 0, 0, 0, 0]","[0, 0, 0, 0, 0]","[0, 0, 0, 0, 0]","[0.003013300010934472, 0.009526400011964142, 0.01649770000949502, 0.02552940000896342, 0.035157600010279566]",14.295319299999392,None,"[1, 1, 2, 2, 2]",130,14.295319299999392,None,14.295319299999392,None,14.295319299999392,None,14.295319299999392,None,14.295319299999392,None,14.295319299999392,None,,,test,1,2020_Jul_02_1948,tworatesteps,2020.1.3,226.0883326946048,
famConds.xlsx,Familiarization,24,11,Align,0,0,0,0,0,11,11,11,,,,,,,,,"[-0.00625, -0.00625, -0.00625, -0.00625, -0.00625, -0.00625, -0.00625, -0.00625]","[-0.009722222222222222, -0.009722222222222222, -0.009722222222222222, -0.009722222222222222, -0.009722222222222222, -0.009722222222222222, -0.009722222222222222, -0.009722222222222222]","[0, 0, 0, 0, 0, 0, 0, 0]","[0, 0, 0, 0, 0, 0, 0, 0]","[0, 0, 0, 0, 0, 0, 0, 0]","[0.0032284000189974904, 0.010091500007547438, 0.017492200015112758, 0.024787800008198246, 0.031243500008713454, 0.039113600010750815, 0.04524240002501756, 0.05266909999772906]",14.336376199993538,None,"[1, 1, 2, 2, 2, 2, 2, 2]",140,14.336376199993538,None,14.336376199993538,None,14.336376199993538,None,14.336376199993538,None,14.336376199993538,None,14.336376199993538,None,,,test,1,2020_Jul_02_1948,tworatesteps,2020.1.3,226.0883326946048,
famConds.xlsx,Familiarization,24,12,Error Clamped,0,0,0,0,0,12,12,12,,,,,,,,,"[-0.00625, -0.00625, -0.00625, -0.00625, -0.00625, -0.00625, -0.00625, -0.00625, -0.00625, -0.00625, -0.00625]","[-0.009722222222222222, -0.009722222222222222, -0.009722222222222222, -0.009722222222222222, -0.009722222222222222, -0.009722222222222222, -0.009722222222222222, -0.009722222222222222, -0.009722222222222222, -0.009722222222222222, -0.009722222222222222]","[0, 0, 0, 0, 0, 0, 0, 0, 0, 0, 0]","[0, 0, 0, 0, 0, 0, 0, 0, 0, 0, 0]","[0, 0, 0, 0, 0, 0, 0, 0, 0, 0, 0]","[0.002999199990881607, 0.011786699993535876, 0.01989509997656569, 0.027355799975339323, 0.03558369999518618, 0.04254899997613393, 0.04980459998478182, 0.058395300002302974, 0.0653325000021141, 0.0734801999933552, 0.08087589999195188]",14.396275699982652,None,"[1, 1, 2, 2, 2, 2, 2, 2, 2, 2, 2]",40,14.396275699982652,None,14.396275699982652,None,14.396275699982652,None,14.396275699982652,None,14.396275699982652,None,14.396275699982652,None,,,test,1,2020_Jul_02_1948,tworatesteps,2020.1.3,226.0883326946048,
famConds.xlsx,Familiarization,24,13,Error Clamped,0,0,0,0,0,13,13,13,,,,,,,,,"[-0.00625, -0.00625, -0.00625, -0.00625, -0.00625, -0.00625, -0.00625, -0.00625, -0.00625, -0.00625, -0.00625, -0.00625, -0.00625, -0.00625, -0.00625, -0.00625, -0.00625, -0.00625, -0.00625, -0.00625, -0.00625, -0.00625, -0.00625, -0.00625, -0.00625, -0.00625]","[-0.009722222222222222, -0.009722222222222222, -0.009722222222222222, -0.009722222222222222, -0.009722222222222222, -0.009722222222222222, -0.009722222222222222, -0.009722222222222222, -0.009722222222222222, -0.009722222222222222, -0.009722222222222222, -0.009722222222222222, -0.009722222222222222, -0.009722222222222222, -0.009722222222222222, -0.009722222222222222, -0.009722222222222222, -0.009722222222222222, -0.009722222222222222, -0.009722222222222222, -0.009722222222222222, -0.009722222222222222, -0.009722222222222222, -0.009722222222222222, -0.009722222222222222, -0.009722222222222222]","[0, 0, 0, 0, 0, 0, 0, 0, 0, 0, 0, 0, 0, 0, 0, 0, 0, 0, 0, 0, 0, 0, 0, 0, 0, 0]","[0, 0, 0, 0, 0, 0, 0, 0, 0, 0, 0, 0, 0, 0, 0, 0, 0, 0, 0, 0, 0, 0, 0, 0, 0, 0]","[0, 0, 0, 0, 0, 0, 0, 0, 0, 0, 0, 0, 0, 0, 0, 0, 0, 0, 0, 0, 0, 0, 0, 0, 0, 0]","[0.0031974999874364585, 0.009867299988400191, 0.01755129999946803, 0.025289200013503432, 0.03236599999945611, 0.03988359999493696, 0.04691689999890514, 0.054283800011035055, 0.060517300007632, 0.06755529998918064, 0.07343799999216571, 0.08014659999753349, 0.08653689999482594, 0.09333929998683743, 0.09938219998730347, 0.10633479998796247, 0.11247689998708665, 0.1192356999963522, 0.12547890000860207, 0.1326847999880556, 0.13859439999214374, 0.14626849998603575, 0.1539164999849163, 0.16208069998538122, 0.1687466999865137, 0.17775840000831522]",14.482362399983685,None,"[1, 1, 2, 2, 2, 2, 2, 2, 2, 2, 2, 2, 2, 2, 2, 2, 2, 2, 2, 2, 2, 2, 2, 2, 2, 2]",50,14.482362399983685,None,14.482362399983685,None,14.482362399983685,None,14.482362399983685,None,14.482362399983685,None,14.482362399983685,None,,,test,1,2020_Jul_02_1948,tworatesteps,2020.1.3,226.0883326946048,
famConds.xlsx,Familiarization,24,14,Error Clamped,0,0,0,0,0,14,14,14,,,,,,,,,"[-0.00625, -0.00625, -0.00625, -0.00625]","[-0.009722222222222222, -0.009722222222222222, -0.009722222222222222, -0.009722222222222222]","[0, 0, 0, 0]","[0, 0, 0, 0]","[0, 0, 0, 0]","[0.005595099995844066, 0.014059599983738735, 0.02160040001035668, 0.030634399998234585]",14.670233599987114,None,"[1, 1, 2, 2]",130,14.670233599987114,None,14.670233599987114,None,14.670233599987114,None,14.670233599987114,None,14.670233599987114,None,14.670233599987114,None,,,test,1,2020_Jul_02_1948,tworatesteps,2020.1.3,226.0883326946048,
famConds.xlsx,Familiarization,24,15,Error Clamped,0,0,0,0,0,15,15,15,,,,,,,,,"[-0.00625, -0.00625, -0.00625, -0.00625, -0.00625, -0.00625, -0.00625, -0.00625, -0.00625, -0.00625, -0.00625, -0.00625]","[-0.009722222222222222, -0.009722222222222222, -0.009722222222222222, -0.009722222222222222, -0.009722222222222222, -0.009722222222222222, -0.009722222222222222, -0.009722222222222222, -0.009722222222222222, -0.009722222222222222, -0.009722222222222222, -0.009722222222222222]","[0, 0, 0, 0, 0, 0, 0, 0, 0, 0, 0, 0]","[0, 0, 0, 0, 0, 0, 0, 0, 0, 0, 0, 0]","[0, 0, 0, 0, 0, 0, 0, 0, 0, 0, 0, 0]","[0.0037103999929968268, 0.010632499994244426, 0.019956100004492328, 0.02686720000929199, 0.03448780000326224, 0.04150670001399703, 0.048573600011877716, 0.05588649999117479, 0.06334520000382327, 0.07112609999603592, 0.07793950001359917, 0.08607769999071024]",14.703896899998654,None,"[1, 1, 2, 2, 2, 2, 2, 2, 2, 2, 2, 2]",140,14.703896899998654,None,14.703896899998654,None,14.703896899998654,None,14.703896899998654,None,14.703896899998654,None,14.703896899998654,None,,,test,1,2020_Jul_02_1948,tworatesteps,2020.1.3,226.0883326946048,
famConds.xlsx,Familiarization,24,16,Error Clamped,0,0,0,0,0,16,16,16,,,,,,,,,"[-0.00625, -0.00625, -0.00625, -0.00625, -0.00625, -0.00625, -0.00625, -0.00625, -0.00625]","[-0.009722222222222222, -0.009722222222222222, -0.009722222222222222, -0.009722222222222222, -0.009722222222222222, -0.009722222222222222, -0.009722222222222222, -0.009722222222222222, -0.009722222222222222]","[0, 0, 0, 0, 0, 0, 0, 0, 0]","[0, 0, 0, 0, 0, 0, 0, 0, 0]","[0, 0, 0, 0, 0, 0, 0, 0, 0]","[0.0029443999810609967, 0.010913199977949262, 0.01874840000527911, 0.02590269999927841, 0.03297279999242164, 0.04010509999352507, 0.04782939999131486, 0.054330699989805, 0.061598600004799664]",14.795885200001067,None,"[1, 1, 2, 2, 2, 2, 2, 2, 2]",40,14.795885200001067,None,14.795885200001067,None,14.795885200001067,None,14.795885200001067,None,14.795885200001067,None,14.795885200001067,None,,,test,1,2020_Jul_02_1948,tworatesteps,2020.1.3,226.0883326946048,
famConds.xlsx,Familiarization,24,17,Error Clamped,0,0,0,0,0,17,17,17,,,,,,,,,"[-0.00625, -0.00625, -0.00625, -0.00625]","[-0.009722222222222222, -0.009722222222222222, -0.009722222222222222, -0.009722222222222222]","[0, 0, 0, 0]","[0, 0, 0, 0]","[0, 0, 0, 0]","[0.004564700007904321, 0.011802799999713898, 0.02003260000492446, 0.026741799985757098]",14.86388259998057,None,"[1, 1, 2, 2]",50,14.86388259998057,None,14.86388259998057,None,14.86388259998057,None,14.86388259998057,None,14.86388259998057,None,14.86388259998057,None,,,test,1,2020_Jul_02_1948,tworatesteps,2020.1.3,226.0883326946048,
famConds.xlsx,Familiarization,24,18,Error Clamped,0,0,0,0,0,18,18,18,,,,,,,,,"[-0.00625, -0.00625, -0.00625, -0.00625, -0.00625, -0.00625, -0.00625, -0.00625, -0.00625]","[-0.009722222222222222, -0.009722222222222222, -0.009722222222222222, -0.009722222222222222, -0.009722222222222222, -0.009722222222222222, -0.009722222222222222, -0.009722222222222222, -0.009722222222222222]","[0, 0, 0, 0, 0, 0, 0, 0, 0]","[0, 0, 0, 0, 0, 0, 0, 0, 0]","[0, 0, 0, 0, 0, 0, 0, 0, 0]","[0.0034961999917868525, 0.011220899992622435, 0.017948699998669326, 0.026648900005966425, 0.032702800002880394, 0.04087019999860786, 0.04849760001525283, 0.055750700004864484, 0.062299400015035644]",14.895684099989012,None,"[1, 1, 2, 2, 2, 2, 2, 2, 2]",130,14.895684099989012,None,14.895684099989012,None,14.895684099989012,None,14.895684099989012,None,14.895684099989012,None,14.895684099989012,None,,,test,1,2020_Jul_02_1948,tworatesteps,2020.1.3,226.0883326946048,
famConds.xlsx,Familiarization,24,19,Error Clamped,0,0,0,0,0,19,19,19,,,,,,,,,"[-0.00625, -0.00625, -0.00625, -0.00625, -0.00625, -0.00625, -0.00625, -0.00625, -0.00625, -0.00625]","[-0.009722222222222222, -0.009722222222222222, -0.009722222222222222, -0.009722222222222222, -0.009722222222222222, -0.009722222222222222, -0.009722222222222222, -0.009722222222222222, -0.009722222222222222, -0.009722222222222222]","[0, 0, 0, 0, 0, 0, 0, 0, 0, 0]","[0, 0, 0, 0, 0, 0, 0, 0, 0, 0]","[0, 0, 0, 0, 0, 0, 0, 0, 0, 0]","[0.003575000009732321, 0.010759600001620129, 0.017917699995450675, 0.025721799989696592, 0.032101199991302565, 0.039620299998205155, 0.04600269999355078, 0.05338339999434538, 0.05973959999391809, 0.06740309999440797]",14.965051299979677,None,"[1, 1, 2, 2, 2, 2, 2, 2, 2, 2]",140,14.965051299979677,None,14.965051299979677,None,14.965051299979677,None,14.965051299979677,None,14.965051299979677,None,14.965051299979677,None,,,test,1,2020_Jul_02_1948,tworatesteps,2020.1.3,226.0883326946048,
famConds.xlsx,Familiarization,24,20,Error Clamped,0,0,0,0,0,20,20,20,,,,,,,,,"[-0.00625, -0.00625, -0.00625]","[-0.009722222222222222, -0.009722222222222222, -0.009722222222222222]","[0, 0, 0]","[0, 0, 0]","[0, 0, 0]","[0.004063300002599135, 0.011471700010588393, 0.019313800003146753]",15.038512600003742,None,"[1, 1, 2]",40,15.038512600003742,None,15.038512600003742,None,15.038512600003742,None,15.038512600003742,None,15.038512600003742,None,15.038512600003742,None,,,test,1,2020_Jul_02_1948,tworatesteps,2020.1.3,226.0883326946048,
famConds.xlsx,Familiarization,24,21,Error Clamped,0,0,0,0,0,21,21,21,,,,,,,,,"[-0.00625, -0.00625]","[-0.009722222222222222, -0.009722222222222222]","[0, 0]","[0, 0]","[0, 0]","[0.0030276000034064054, 0.010080300009576604]",15.062757999985479,None,"[1, 1]",50,15.062757999985479,None,15.062757999985479,None,15.062757999985479,None,15.062757999985479,None,15.062757999985479,None,15.062757999985479,None,,,test,1,2020_Jul_02_1948,tworatesteps,2020.1.3,226.0883326946048,
famConds.xlsx,Familiarization,24,22,Error Clamped,0,0,0,0,0,22,22,22,,,,,,,,,"[-0.00625, -0.00625, -0.00625, -0.00625, -0.00625, -0.00625]","[-0.009722222222222222, -0.009722222222222222, -0.009722222222222222, -0.009722222222222222, -0.009722222222222222, -0.009722222222222222]","[0, 0, 0, 0, 0, 0]","[0, 0, 0, 0, 0, 0]","[0, 0, 0, 0, 0, 0]","[0.004230099992128089, 0.010927499999525025, 0.019095599971478805, 0.025922999979229644, 0.03444109999691136, 0.04171459999633953]",15.079572399990866,None,"[1, 1, 2, 2, 2, 2]",130,15.079572399990866,None,15.079572399990866,None,15.079572399990866,None,15.079572399990866,None,15.079572399990866,None,15.079572399990866,None,,,test,1,2020_Jul_02_1948,tworatesteps,2020.1.3,226.0883326946048,
famConds.xlsx,Familiarization,24,23,Error Clamped,0,0,0,0,0,23,23,23,,,,,,,,,"[-0.00625, -0.00625, -0.00625, -0.00625, -0.00625, -0.00625, -0.00625, -0.00625, -0.00625, -0.00625]","[-0.009722222222222222, -0.009722222222222222, -0.009722222222222222, -0.009722222222222222, -0.009722222222222222, -0.009722222222222222, -0.009722222222222222, -0.009722222222222222, -0.009722222222222222, -0.009722222222222222]","[0, 0, 0, 0, 0, 0, 0, 0, 0, 0]","[0, 0, 0, 0, 0, 0, 0, 0, 0, 0]","[0, 0, 0, 0, 0, 0, 0, 0, 0, 0]","[0.003488999995170161, 0.010922499990556389, 0.01843580001150258, 0.025035700004082173, 0.03242179998778738, 0.040902200009441, 0.049135000008391216, 0.0558137999905739, 0.06262549999519251, 0.06958139999187551]",15.129035899997689,None,"[1, 1, 2, 2, 2, 2, 2, 2, 2, 2]",140,15.129035899997689,None,15.129035899997689,None,15.129035899997689,None,15.129035899997689,None,15.129035899997689,None,15.129035899997689,None,,,test,1,2020_Jul_02_1948,tworatesteps,2020.1.3,226.0883326946048,
mainConds.xlsx,Abrupt,160,0,Aligned,0,1,1,1,0,0,0,0,,,15.202086499979487,None,space,0.5738084000186063,15.202086499979487,None,"[-0.00625, -0.00625, -0.00625, -0.00625, -0.00625, -0.00625, -0.00625, -0.00625, -0.00625, -0.00625, -0.00625, -0.00625, -0.00625, -0.00625, -0.00625, -0.00625, -0.00625, -0.00625, -0.00625, -0.00625, -0.00625, -0.00625, -0.00625, -0.00625, -0.00625, -0.00625, -0.00625, -0.00625, -0.00625, -0.00625, -0.00625, -0.00625, -0.00625, -0.00625, -0.00625, -0.00625, -0.00625, -0.00625]","[-0.009722222222222222, -0.009722222222222222, -0.009722222222222222, -0.009722222222222222, -0.009722222222222222, -0.009722222222222222, -0.009722222222222222, -0.009722222222222222, -0.009722222222222222, -0.009722222222222222, -0.009722222222222222, -0.009722222222222222, -0.009722222222222222, -0.009722222222222222, -0.009722222222222222, -0.009722222222222222, -0.009722222222222222, -0.009722222222222222, -0.009722222222222222, -0.009722222222222222, -0.009722222222222222, -0.009722222222222222, -0.009722222222222222, -0.009722222222222222, -0.009722222222222222, -0.009722222222222222, -0.009722222222222222, -0.009722222222222222, -0.009722222222222222, -0.009722222222222222, -0.009722222222222222, -0.009722222222222222, -0.009722222222222222, -0.009722222222222222, -0.009722222222222222, -0.009722222222222222, -0.009722222222222222, -0.009722222222222222]","[0, 0, 0, 0, 0, 0, 0, 0, 0, 0, 0, 0, 0, 0, 0, 0, 0, 0, 0, 0, 0, 0, 0, 0, 0, 0, 0, 0, 0, 0, 0, 0, 0, 0, 0, 0, 0, 0]","[0, 0, 0, 0, 0, 0, 0, 0, 0, 0, 0, 0, 0, 0, 0, 0, 0, 0, 0, 0, 0, 0, 0, 0, 0, 0, 0, 0, 0, 0, 0, 0, 0, 0, 0, 0, 0, 0]","[0, 0, 0, 0, 0, 0, 0, 0, 0, 0, 0, 0, 0, 0, 0, 0, 0, 0, 0, 0, 0, 0, 0, 0, 0, 0, 0, 0, 0, 0, 0, 0, 0, 0, 0, 0, 0, 0]","[0.0029375999874901026, 0.0098230000003241, 0.016473199997562915, 0.02248459999100305, 0.030348699976457283, 0.03727599998819642, 0.04520939997746609, 0.05372989998431876, 0.06012249999912456, 0.06758360000094399, 0.07398519999696873, 0.08201059998827986, 0.08912269998108968, 0.09675609998521395, 0.10390249997726642, 0.11082629999145865, 0.11875789999612607, 0.12551270000403747, 0.13392959997872822, 0.14048899998306297, 0.14802890000282787, 0.15421280000009574, 0.16188790000160225, 0.16829289999441244, 0.17604399999254383, 0.18251359998248518, 0.19012559999828227, 0.19688229999155737, 0.2045823999796994, 0.21319079998647794, 0.21974719999707304, 0.22744699998293072, 0.23317699998733588, 0.2404171999951359, 0.24619939998956397, 0.2538195999804884, 0.2607240999932401, 0.2685781999898609]",15.803201100003207,None,"[1, 1, 2, 2, 2, 2, 2, 2, 2, 2, 2, 2, 2, 2, 2, 2, 2, 2, 2, 2, 2, 2, 2, 2, 2, 2, 2, 2, 2, 2, 2, 2, 2, 2, 2, 2, 2, 2]",40,15.803201100003207,None,15.803201100003207,None,15.803201100003207,None,15.803201100003207,None,15.803201100003207,None,15.803201100003207,None,,,test,1,2020_Jul_02_1948,tworatesteps,2020.1.3,226.0883326946048,
mainConds.xlsx,Abrupt,160,1,Aligned,0,1,1,1,0,1,1,1,,,,,,,,,"[-0.00625, -0.00625, -0.00625, -0.00625, -0.00625, -0.00625, -0.00625]","[-0.009722222222222222, -0.009722222222222222, -0.009722222222222222, -0.009722222222222222, -0.009722222222222222, -0.009722222222222222, -0.009722222222222222]","[0, 0, 0, 0, 0, 0, 0]","[0, 0, 0, 0, 0, 0, 0]","[0, 0, 0, 0, 0, 0, 0]","[0.004737800016300753, 0.012940999993588775, 0.01988139998866245, 0.02818880000268109, 0.034748800011584535, 0.04351039999164641, 0.050355899991700426]",16.08226629998535,None,"[1, 1, 2, 2, 2, 2, 2]",50,16.08226629998535,None,16.08226629998535,None,16.08226629998535,None,16.08226629998535,None,16.08226629998535,None,16.08226629998535,None,,,test,1,2020_Jul_02_1948,tworatesteps,2020.1.3,226.0883326946048,
mainConds.xlsx,Abrupt,160,2,Aligned,0,1,1,1,0,2,2,2,,,,,,,,,"[-0.00625, -0.00625, -0.00625, -0.00625, -0.00625, -0.00625]","[-0.009722222222222222, -0.009722222222222222, -0.009722222222222222, -0.009722222222222222, -0.009722222222222222, -0.009722222222222222]","[0, 0, 0, 0, 0, 0]","[0, 0, 0, 0, 0, 0]","[0, 0, 0, 0, 0, 0]","[0.004581699991831556, 0.012224199977936223, 0.019362399994861335, 0.027804699988337234, 0.03448439997737296, 0.042122799990465865]",16.13835540000582,None,"[1, 1, 2, 2, 2, 2]",40,16.13835540000582,None,16.13835540000582,None,16.13835540000582,None,16.13835540000582,None,16.13835540000582,None,16.13835540000582,None,,,test,1,2020_Jul_02_1948,tworatesteps,2020.1.3,226.0883326946048,
mainConds.xlsx,Abrupt,160,3,Aligned,0,1,1,1,0,3,3,3,,,,,,,,,"[-0.00625, -0.00625, -0.00625, -0.00625]","[-0.009722222222222222, -0.009722222222222222, -0.009722222222222222, -0.009722222222222222]","[0, 0, 0, 0]","[0, 0, 0, 0]","[0, 0, 0, 0]","[0.0050331000238657, 0.012633500009542331, 0.019364300009328872, 0.025356500002089888]",16.187411999999313,None,"[1, 1, 2, 2]",50,16.187411999999313,None,16.187411999999313,None,16.187411999999313,None,16.187411999999313,None,16.187411999999313,None,16.187411999999313,None,,,test,1,2020_Jul_02_1948,tworatesteps,2020.1.3,226.0883326946048,
mainConds.xlsx,Abrupt,160,4,Aligned,0,1,1,1,0,4,4,4,,,,,,,,,"[-0.00625, -0.00625]","[-0.009722222222222222, -0.009722222222222222]","[0, 0]","[0, 0]","[0, 0]","[0.003060499991988763, 0.010788599989609793]",16.216278499981854,None,"[1, 1]",40,16.216278499981854,None,16.216278499981854,None,16.216278499981854,None,16.216278499981854,None,16.216278499981854,None,16.216278499981854,None,,,test,1,2020_Jul_02_1948,tworatesteps,2020.1.3,226.0883326946048,
mainConds.xlsx,Abrupt,160,5,Aligned,0,1,1,1,0,5,5,5,,,,,,,,,"[-0.00625, -0.00625, -0.00625, -0.00625]","[-0.009722222222222222, -0.009722222222222222, -0.009722222222222222, -0.009722222222222222]","[0, 0, 0, 0]","[0, 0, 0, 0]","[0, 0, 0, 0]","[0.0045270000118762255, 0.013550300005590543, 0.020010000007459894, 0.02793430001474917]",16.235813399980543,None,"[1, 1, 2, 2]",50,16.235813399980543,None,16.235813399980543,None,16.235813399980543,None,16.235813399980543,None,16.235813399980543,None,16.235813399980543,None,,,test,1,2020_Jul_02_1948,tworatesteps,2020.1.3,226.0883326946048,
mainConds.xlsx,Abrupt,160,6,Aligned,0,1,1,1,0,6,6,6,,,,,,,,,"[-0.00625, -0.00625, -0.00625, -0.00625, -0.00625, -0.00625, -0.00625, -0.00625, -0.00625, -0.00625, -0.00625, -0.00625]","[-0.009722222222222222, -0.009722222222222222, -0.009722222222222222, -0.009722222222222222, -0.009722222222222222, -0.009722222222222222, -0.009722222222222222, -0.009722222222222222, -0.009722222222222222, -0.009722222222222222, -0.009722222222222222, -0.009722222222222222]","[0, 0, 0, 0, 0, 0, 0, 0, 0, 0, 0, 0]","[0, 0, 0, 0, 0, 0, 0, 0, 0, 0, 0, 0]","[0, 0, 0, 0, 0, 0, 0, 0, 0, 0, 0, 0]","[0.004184799996437505, 0.011060899996664375, 0.019079000019701198, 0.025904100009938702, 0.03289309999672696, 0.038850100012496114, 0.046201699995435774, 0.05294560000766069, 0.060656000016024336, 0.06697430001804605, 0.07366140000522137, 0.08042209999985062]",16.267091399990022,None,"[1, 1, 2, 2, 2, 2, 2, 2, 2, 2, 2, 2]",40,16.267091399990022,None,16.267091399990022,None,16.267091399990022,None,16.267091399990022,None,16.267091399990022,None,16.267091399990022,None,,,test,1,2020_Jul_02_1948,tworatesteps,2020.1.3,226.0883326946048,
mainConds.xlsx,Abrupt,160,7,Aligned,0,1,1,1,0,7,7,7,,,,,,,,,"[-0.00625, -0.00625, -0.00625]","[-0.009722222222222222, -0.009722222222222222, -0.009722222222222222]","[0, 0, 0]","[0, 0, 0]","[0, 0, 0]","[0.0033796000061556697, 0.011098999995738268, 0.017963999998755753]",16.353336899977876,None,"[1, 1, 2]",50,16.353336899977876,None,16.353336899977876,None,16.353336899977876,None,16.353336899977876,None,16.353336899977876,None,16.353336899977876,None,,,test,1,2020_Jul_02_1948,tworatesteps,2020.1.3,226.0883326946048,
mainConds.xlsx,Abrupt,160,8,Aligned,0,1,1,1,0,8,8,8,,,,,,,,,"[-0.00625, -0.00625, -0.00625]","[-0.009722222222222222, -0.009722222222222222, -0.009722222222222222]","[0, 0, 0]","[0, 0, 0]","[0, 0, 0]","[0.0029907000134699047, 0.010157200013054535, 0.01808470001560636]",16.376849699998274,None,"[1, 1, 2]",40,16.376849699998274,None,16.376849699998274,None,16.376849699998274,None,16.376849699998274,None,16.376849699998274,None,16.376849699998274,None,,,test,1,2020_Jul_02_1948,tworatesteps,2020.1.3,226.0883326946048,
mainConds.xlsx,Abrupt,160,9,Aligned,0,1,1,1,0,9,9,9,,,,,,,,,"[-0.00625, -0.00625, -0.00625, -0.00625]","[-0.009722222222222222, -0.009722222222222222, -0.009722222222222222, -0.009722222222222222]","[0, 0, 0, 0]","[0, 0, 0, 0]","[0, 0, 0, 0]","[0.003979700006311759, 0.012409499991917983, 0.021080700011225417, 0.029085899994242936]",16.40266160000465,None,"[1, 1, 2, 2]",50,16.40266160000465,None,16.40266160000465,None,16.40266160000465,None,16.40266160000465,None,16.40266160000465,None,16.40266160000465,None,,,test,1,2020_Jul_02_1948,tworatesteps,2020.1.3,226.0883326946048,
mainConds.xlsx,Abrupt,160,10,Aligned,0,1,1,1,0,10,10,10,,,,,,,,,"[-0.00625, -0.00625, -0.00625, -0.00625, -0.00625, -0.00625, -0.00625, -0.00625, -0.00625, -0.00625, -0.00625]","[-0.009722222222222222, -0.009722222222222222, -0.009722222222222222, -0.009722222222222222, -0.009722222222222222, -0.009722222222222222, -0.009722222222222222, -0.009722222222222222, -0.009722222222222222, -0.009722222222222222, -0.009722222222222222]","[0, 0, 0, 0, 0, 0, 0, 0, 0, 0, 0]","[0, 0, 0, 0, 0, 0, 0, 0, 0, 0, 0]","[0, 0, 0, 0, 0, 0, 0, 0, 0, 0, 0]","[0.0029454999894369394, 0.011449299985542893, 0.018474399985279888, 0.02475779998349026, 0.031090599979506806, 0.03805350000038743, 0.04610209999373183, 0.05280929998843931, 0.059789199993247166, 0.06636399999842979, 0.07432929999777116]",16.437750199984293,None,"[1, 1, 2, 2, 2, 2, 2, 2, 2, 2, 2]",40,16.437750199984293,None,16.437750199984293,None,16.437750199984293,None,16.437750199984293,None,16.437750199984293,None,16.437750199984293,None,,,test,1,2020_Jul_02_1948,tworatesteps,2020.1.3,226.0883326946048,
mainConds.xlsx,Abrupt,160,11,Aligned,0,1,1,1,0,11,11,11,,,,,,,,,"[-0.00625, -0.00625, -0.00625, -0.00625, -0.00625, -0.00625, -0.00625]","[-0.009722222222222222, -0.009722222222222222, -0.009722222222222222, -0.009722222222222222, -0.009722222222222222, -0.009722222222222222, -0.009722222222222222]","[0, 0, 0, 0, 0, 0, 0]","[0, 0, 0, 0, 0, 0, 0]","[0, 0, 0, 0, 0, 0, 0]","[0.0028369999781716615, 0.009953799977665767, 0.019537499989382923, 0.026023399987025186, 0.034077599993906915, 0.0417023999907542, 0.04927779998979531]",16.516511699999683,None,"[1, 1, 2, 2, 2, 2, 2]",50,16.516511699999683,None,16.516511699999683,None,16.516511699999683,None,16.516511699999683,None,16.516511699999683,None,16.516511699999683,None,,,test,1,2020_Jul_02_1948,tworatesteps,2020.1.3,226.0883326946048,
mainConds.xlsx,Abrupt,160,12,Aligned,0,1,1,1,0,12,12,12,,,,,,,,,"[-0.00625, -0.00625, -0.00625]","[-0.009722222222222222, -0.009722222222222222, -0.009722222222222222]","[0, 0, 0]","[0, 0, 0]","[0, 0, 0]","[0.004130899993469939, 0.010936499980743974, 0.01934979998623021]",16.572550099983346,None,"[1, 1, 2]",40,16.572550099983346,None,16.572550099983346,None,16.572550099983346,None,16.572550099983346,None,16.572550099983346,None,16.572550099983346,None,,,test,1,2020_Jul_02_1948,tworatesteps,2020.1.3,226.0883326946048,
mainConds.xlsx,Abrupt,160,13,Aligned,0,1,1,1,0,13,13,13,,,,,,,,,"[-0.00625, -0.00625]","[-0.009722222222222222, -0.009722222222222222]","[0, 0]","[0, 0]","[0, 0]","[0.002908099995693192, 0.01131200001691468]",16.597400999977253,None,"[1, 1]",50,16.597400999977253,None,16.597400999977253,None,16.597400999977253,None,16.597400999977253,None,16.597400999977253,None,16.597400999977253,None,,,test,1,2020_Jul_02_1948,tworatesteps,2020.1.3,226.0883326946048,
mainConds.xlsx,Abrupt,160,14,Aligned,0,1,1,1,0,14,14,14,,,,,,,,,"[-0.00625, -0.00625, -0.00625, -0.00625]","[-0.009722222222222222, -0.009722222222222222, -0.009722222222222222, -0.009722222222222222]","[0, 0, 0, 0]","[0, 0, 0, 0]","[0, 0, 0, 0]","[0.003889799991156906, 0.01073119998909533, 0.02020440000342205, 0.028993799991440028]",16.613705099996878,None,"[1, 1, 2, 2]",40,16.613705099996878,None,16.613705099996878,None,16.613705099996878,None,16.613705099996878,None,16.613705099996878,None,16.613705099996878,None,,,test,1,2020_Jul_02_1948,tworatesteps,2020.1.3,226.0883326946048,
mainConds.xlsx,Abrupt,160,15,Aligned,0,1,1,1,0,15,15,15,,,,,,,,,"[-0.00625, -0.00625, -0.00625, -0.00625, -0.00625]","[-0.009722222222222222, -0.009722222222222222, -0.009722222222222222, -0.009722222222222222, -0.009722222222222222]","[0, 0, 0, 0, 0]","[0, 0, 0, 0, 0]","[0, 0, 0, 0, 0]","[0.005857899988768622, 0.016009799990570173, 0.02411149998079054, 0.031701300002168864, 0.03976640000473708]",16.65394479999668,None,"[1, 1, 2, 2, 2]",50,16.65394479999668,None,16.65394479999668,None,16.65394479999668,None,16.65394479999668,None,16.65394479999668,None,16.65394479999668,None,,,test,1,2020_Jul_02_1948,tworatesteps,2020.1.3,226.0883326946048,
mainConds.xlsx,Abrupt,160,16,Aligned,0,1,1,1,0,16,16,16,,,,,,,,,"[-0.00625, -0.00625, -0.00625, -0.00625]","[-0.009722222222222222, -0.009722222222222222, -0.009722222222222222, -0.009722222222222222]","[0, 0, 0, 0]","[0, 0, 0, 0]","[0, 0, 0, 0]","[0.004147899977397174, 0.010512699984246865, 0.0175734999938868, 0.02541219998965971]",16.69576559998677,None,"[1, 1, 2, 2]",40,16.69576559998677,None,16.69576559998677,None,16.69576559998677,None,16.69576559998677,None,16.69576559998677,None,16.69576559998677,None,,,test,1,2020_Jul_02_1948,tworatesteps,2020.1.3,226.0883326946048,
mainConds.xlsx,Abrupt,160,17,Aligned,0,1,1,1,0,17,17,17,,,,,,,,,"[-0.00625, -0.00625, -0.00625, -0.00625, -0.00625]","[-0.009722222222222222, -0.009722222222222222, -0.009722222222222222, -0.009722222222222222, -0.009722222222222222]","[0, 0, 0, 0, 0]","[0, 0, 0, 0, 0]","[0, 0, 0, 0, 0]","[0.0032128000166267157, 0.010002700000768527, 0.017554799997014925, 0.025001400004839525, 0.031134699995163828]",16.726697000005515,None,"[1, 1, 2, 2, 2]",50,16.726697000005515,None,16.726697000005515,None,16.726697000005515,None,16.726697000005515,None,16.726697000005515,None,16.726697000005515,None,,,test,1,2020_Jul_02_1948,tworatesteps,2020.1.3,226.0883326946048,
mainConds.xlsx,Abrupt,160,18,Aligned,0,1,1,1,0,18,18,18,,,,,,,,,"[-0.00625, -0.00625, -0.00625, -0.00625]","[-0.009722222222222222, -0.009722222222222222, -0.009722222222222222, -0.009722222222222222]","[0, 0, 0, 0]","[0, 0, 0, 0]","[0, 0, 0, 0]","[0.003532300004735589, 0.012044900009641424, 0.01972599999862723, 0.02865429999656044]",16.765141499985475,None,"[1, 1, 2, 2]",40,16.765141499985475,None,16.765141499985475,None,16.765141499985475,None,16.765141499985475,None,16.765141499985475,None,16.765141499985475,None,,,test,1,2020_Jul_02_1948,tworatesteps,2020.1.3,226.0883326946048,
mainConds.xlsx,Abrupt,160,19,Aligned,0,1,1,1,0,19,19,19,,,,,,,,,"[-0.00625, -0.00625]","[-0.009722222222222222, -0.009722222222222222]","[0, 0]","[0, 0]","[0, 0]","[0.0064147000084631145, 0.013888899993617088]",16.802965599985328,None,"[1, 1]",50,16.802965599985328,None,16.802965599985328,None,16.802965599985328,None,16.802965599985328,None,16.802965599985328,None,16.802965599985328,None,,,test,1,2020_Jul_02_1948,tworatesteps,2020.1.3,226.0883326946048,
mainConds.xlsx,Abrupt,160,20,Aligned,0,1,1,1,0,20,20,20,,,,,,,,,"[-0.00625, -0.00625, -0.00625, -0.00625, -0.00625, -0.00625, -0.00625, -0.00625, -0.00625, -0.00625]","[-0.009722222222222222, -0.009722222222222222, -0.009722222222222222, -0.009722222222222222, -0.009722222222222222, -0.009722222222222222, -0.009722222222222222, -0.009722222222222222, -0.009722222222222222, -0.009722222222222222]","[0, 0, 0, 0, 0, 0, 0, 0, 0, 0]","[0, 0, 0, 0, 0, 0, 0, 0, 0, 0]","[0, 0, 0, 0, 0, 0, 0, 0, 0, 0]","[0.003667099983431399, 0.011418400012189522, 0.01831549999769777, 0.028014699986670166, 0.03536869998788461, 0.04221640000469051, 0.04967249999754131, 0.05666100000962615, 0.06440880001173355, 0.07211320000351407]",16.82020429999102,None,"[1, 1, 2, 2, 2, 2, 2, 2, 2, 2]",40,16.82020429999102,None,16.82020429999102,None,16.82020429999102,None,16.82020429999102,None,16.82020429999102,None,16.82020429999102,None,,,test,1,2020_Jul_02_1948,tworatesteps,2020.1.3,226.0883326946048,
mainConds.xlsx,Abrupt,160,21,Aligned,0,1,1,1,0,21,21,21,,,,,,,,,"[-0.00625, -0.00625, -0.00625]","[-0.009722222222222222, -0.009722222222222222, -0.009722222222222222]","[0, 0, 0]","[0, 0, 0]","[0, 0, 0]","[0.0028039999888278544, 0.010939200001303107, 0.017726299993228167]",16.898028900002828,None,"[1, 1, 2]",50,16.898028900002828,None,16.898028900002828,None,16.898028900002828,None,16.898028900002828,None,16.898028900002828,None,16.898028900002828,None,,,test,1,2020_Jul_02_1948,tworatesteps,2020.1.3,226.0883326946048,
mainConds.xlsx,Abrupt,160,22,Aligned,0,1,1,1,0,22,22,22,,,,,,,,,"[-0.00625, -0.00625, -0.00625, -0.00625, -0.00625]","[-0.009722222222222222, -0.009722222222222222, -0.009722222222222222, -0.009722222222222222, -0.009722222222222222]","[0, 0, 0, 0, 0]","[0, 0, 0, 0, 0]","[0, 0, 0, 0, 0]","[0.004471300024306402, 0.01313010000740178, 0.020462000014958903, 0.028659300005529076, 0.03539720000117086]",16.923822699987795,None,"[1, 1, 2, 2, 2]",40,16.923822699987795,None,16.923822699987795,None,16.923822699987795,None,16.923822699987795,None,16.923822699987795,None,16.923822699987795,None,,,test,1,2020_Jul_02_1948,tworatesteps,2020.1.3,226.0883326946048,
mainConds.xlsx,Abrupt,160,23,Aligned,0,1,1,1,0,23,23,23,,,,,,,,,"[-0.00625, -0.00625, -0.00625, -0.00625, -0.00625]","[-0.009722222222222222, -0.009722222222222222, -0.009722222222222222, -0.009722222222222222, -0.009722222222222222]","[0, 0, 0, 0, 0]","[0, 0, 0, 0, 0]","[0, 0, 0, 0, 0]","[0.0035299999872222543, 0.011170599987963215, 0.018224800005555153, 0.02590139998937957, 0.03329859999939799]",16.965752299991436,None,"[1, 1, 2, 2, 2]",50,16.965752299991436,None,16.965752299991436,None,16.965752299991436,None,16.965752299991436,None,16.965752299991436,None,16.965752299991436,None,,,test,1,2020_Jul_02_1948,tworatesteps,2020.1.3,226.0883326946048,
mainConds.xlsx,Abrupt,160,24,Aligned,0,1,1,1,0,24,24,24,,,,,,,,,"[-0.00625, -0.00625, -0.00625, -0.00625, -0.00625, -0.00625]","[-0.009722222222222222, -0.009722222222222222, -0.009722222222222222, -0.009722222222222222, -0.009722222222222222, -0.009722222222222222]","[0, 0, 0, 0, 0, 0]","[0, 0, 0, 0, 0, 0]","[0, 0, 0, 0, 0, 0]","[0.0029317000007722527, 0.009669999999459833, 0.016641099995467812, 0.024989699973957613, 0.032429899991257116, 0.04030129997408949]",17.00428599998122,None,"[1, 1, 2, 2, 2, 2]",40,17.00428599998122,None,17.00428599998122,None,17.00428599998122,None,17.00428599998122,None,17.00428599998122,None,17.00428599998122,None,,,test,1,2020_Jul_02_1948,tworatesteps,2020.1.3,226.0883326946048,
mainConds.xlsx,Abrupt,160,25,Aligned,0,1,1,1,0,25,25,25,,,,,,,,,"[-0.00625, -0.00625, -0.00625, -0.00625, -0.00625, -0.00625]","[-0.009722222222222222, -0.009722222222222222, -0.009722222222222222, -0.009722222222222222, -0.009722222222222222, -0.009722222222222222]","[0, 0, 0, 0, 0, 0]","[0, 0, 0, 0, 0, 0]","[0, 0, 0, 0, 0, 0]","[0.004729200009023771, 0.012012300023343414, 0.02048300000024028, 0.027014599996618927, 0.03421650000382215, 0.041472200013231486]",17.05372389999684,None,"[1, 1, 2, 2, 2, 2]",50,17.05372389999684,None,17.05372389999684,None,17.05372389999684,None,17.05372389999684,None,17.05372389999684,None,17.05372389999684,None,,,test,1,2020_Jul_02_1948,tworatesteps,2020.1.3,226.0883326946048,
mainConds.xlsx,Abrupt,160,26,Aligned,0,1,1,1,0,26,26,26,,,,,,,,,"[-0.00625, -0.00625, -0.00625, -0.00625]","[-0.009722222222222222, -0.009722222222222222, -0.009722222222222222, -0.009722222222222222]","[0, 0, 0, 0]","[0, 0, 0, 0]","[0, 0, 0, 0]","[0.003071199986152351, 0.010136700002476573, 0.017437700007576495, 0.026063600002089515]",17.099635199992917,None,"[1, 1, 2, 2]",40,17.099635199992917,None,17.099635199992917,None,17.099635199992917,None,17.099635199992917,None,17.099635199992917,None,17.099635199992917,None,,,test,1,2020_Jul_02_1948,tworatesteps,2020.1.3,226.0883326946048,
mainConds.xlsx,Abrupt,160,27,Aligned,0,1,1,1,0,27,27,27,,,,,,,,,"[-0.00625, -0.00625]","[-0.009722222222222222, -0.009722222222222222]","[0, 0]","[0, 0]","[0, 0]","[0.0035007999977096915, 0.01224240000010468]",17.13178009999683,None,"[1, 1]",50,17.13178009999683,None,17.13178009999683,None,17.13178009999683,None,17.13178009999683,None,17.13178009999683,None,17.13178009999683,None,,,test,1,2020_Jul_02_1948,tworatesteps,2020.1.3,226.0883326946048,
mainConds.xlsx,Abrupt,160,28,Aligned,0,1,1,1,0,28,28,28,,,,,,,,,"[-0.00625, -0.00625]","[-0.009722222222222222, -0.009722222222222222]","[0, 0]","[0, 0]","[0, 0]","[0.003304999991087243, 0.011388699989765882]",17.15078959998209,None,"[1, 1]",40,17.15078959998209,None,17.15078959998209,None,17.15078959998209,None,17.15078959998209,None,17.15078959998209,None,17.15078959998209,None,,,test,1,2020_Jul_02_1948,tworatesteps,2020.1.3,226.0883326946048,
mainConds.xlsx,Abrupt,160,29,Aligned,0,1,1,1,0,29,29,29,,,,,,,,,"[-0.00625, -0.00625, -0.00625]","[-0.009722222222222222, -0.009722222222222222, -0.009722222222222222]","[0, 0, 0]","[0, 0, 0]","[0, 0, 0]","[0.003497199999401346, 0.013154600019333884, 0.02138409999315627]",17.16969139999128,None,"[1, 1, 2]",50,17.16969139999128,None,17.16969139999128,None,17.16969139999128,None,17.16969139999128,None,17.16969139999128,None,17.16969139999128,None,,,test,1,2020_Jul_02_1948,tworatesteps,2020.1.3,226.0883326946048,
mainConds.xlsx,Abrupt,160,30,Aligned,0,1,1,1,0,30,30,30,,,,,,,,,"[-0.00625, -0.00625, -0.00625]","[-0.009722222222222222, -0.009722222222222222, -0.009722222222222222]","[0, 0, 0]","[0, 0, 0]","[0, 0, 0]","[0.0032147999736480415, 0.010606999974697828, 0.01793199998792261]",17.195212099992204,None,"[1, 1, 2]",40,17.195212099992204,None,17.195212099992204,None,17.195212099992204,None,17.195212099992204,None,17.195212099992204,None,17.195212099992204,None,,,test,1,2020_Jul_02_1948,tworatesteps,2020.1.3,226.0883326946048,
mainConds.xlsx,Abrupt,160,31,Aligned,0,1,1,1,0,31,31,31,,,,,,,,,"[-0.00625, -0.00625, -0.00625]","[-0.009722222222222222, -0.009722222222222222, -0.009722222222222222]","[0, 0, 0]","[0, 0, 0]","[0, 0, 0]","[0.0031795999966561794, 0.009779500018339604, 0.017059900012100115]",17.218294599995716,None,"[1, 1, 2]",50,17.218294599995716,None,17.218294599995716,None,17.218294599995716,None,17.218294599995716,None,17.218294599995716,None,17.218294599995716,None,,,test,1,2020_Jul_02_1948,tworatesteps,2020.1.3,226.0883326946048,
mainConds.xlsx,Abrupt,160,32,Rotated,0,1,1,1,0,32,32,32,,,,,,,,,"[-0.00625, -0.00625, -0.00625, -0.00625, -0.00625, -0.00625, -0.00625]","[-0.009722222222222222, -0.009722222222222222, -0.009722222222222222, -0.009722222222222222, -0.009722222222222222, -0.009722222222222222, -0.009722222222222222]","[0, 0, 0, 0, 0, 0, 0]","[0, 0, 0, 0, 0, 0, 0]","[0, 0, 0, 0, 0, 0, 0]","[0.008915699989302084, 0.015544399997452274, 0.022485199995571747, 0.030511199991451576, 0.03696880000643432, 0.045253199990838766, 0.05397799998172559]",17.247473700001137,None,"[1, 1, 2, 2, 2, 2, 2]",40,17.247473700001137,None,17.247473700001137,None,17.247473700001137,None,17.247473700001137,None,17.247473700001137,None,17.247473700001137,None,,,test,1,2020_Jul_02_1948,tworatesteps,2020.1.3,226.0883326946048,
mainConds.xlsx,Abrupt,160,33,Rotated,0,1,1,1,0,33,33,33,,,,,,,,,"[-0.00625, -0.00625, -0.00625]","[-0.009722222222222222, -0.009722222222222222, -0.009722222222222222]","[0, 0, 0]","[0, 0, 0]","[0, 0, 0]","[0.0034604999818839133, 0.013575099990703166, 0.023628999973880127]",17.3049143999815,None,"[1, 1, 2]",50,17.3049143999815,None,17.3049143999815,None,17.3049143999815,None,17.3049143999815,None,17.3049143999815,None,17.3049143999815,None,,,test,1,2020_Jul_02_1948,tworatesteps,2020.1.3,226.0883326946048,
mainConds.xlsx,Abrupt,160,34,Rotated,0,1,1,1,0,34,34,34,,,,,,,,,"[-0.00625, -0.00625, -0.00625, -0.00625]","[-0.009722222222222222, -0.009722222222222222, -0.009722222222222222, -0.009722222222222222]","[0, 0, 0, 0]","[0, 0, 0, 0]","[0, 0, 0, 0]","[0.005806900007883087, 0.015657200012356043, 0.023202300013508648, 0.032609500020043924]",17.338286699989112,None,"[1, 1, 2, 2]",40,17.338286699989112,None,17.338286699989112,None,17.338286699989112,None,17.338286699989112,None,17.338286699989112,None,17.338286699989112,None,,,test,1,2020_Jul_02_1948,tworatesteps,2020.1.3,226.0883326946048,
mainConds.xlsx,Abrupt,160,35,Rotated,0,1,1,1,0,35,35,35,,,,,,,,,"[-0.00625, -0.00625, -0.00625, -0.00625]","[-0.009722222222222222, -0.009722222222222222, -0.009722222222222222, -0.009722222222222222]","[0, 0, 0, 0]","[0, 0, 0, 0]","[0, 0, 0, 0]","[0.007065499987220392, 0.01552269997773692, 0.02404940000269562, 0.03513629999361001]",17.376779599988367,None,"[1, 1, 2, 2]",50,17.376779599988367,None,17.376779599988367,None,17.376779599988367,None,17.376779599988367,None,17.376779599988367,None,17.376779599988367,None,,,test,1,2020_Jul_02_1948,tworatesteps,2020.1.3,226.0883326946048,
mainConds.xlsx,Abrupt,160,36,Rotated,0,1,1,1,0,36,36,36,,,,,,,,,"[-0.00625, -0.00625, -0.00625, -0.00625, -0.00625]","[-0.009722222222222222, -0.009722222222222222, -0.009722222222222222, -0.009722222222222222, -0.009722222222222222]","[0, 0, 0, 0, 0]","[0, 0, 0, 0, 0]","[0, 0, 0, 0, 0]","[0.005154100013896823, 0.012993000011192635, 0.021379799989517778, 0.029936700011603534, 0.03877650000504218]",17.41730469997856,None,"[1, 1, 2, 2, 2]",40,17.41730469997856,None,17.41730469997856,None,17.41730469997856,None,17.41730469997856,None,17.41730469997856,None,17.41730469997856,None,,,test,1,2020_Jul_02_1948,tworatesteps,2020.1.3,226.0883326946048,
mainConds.xlsx,Abrupt,160,37,Rotated,0,1,1,1,0,37,37,37,,,,,,,,,"[-0.00625, -0.00625, -0.00625, -0.00625, -0.00625, -0.00625, -0.00625]","[-0.009722222222222222, -0.009722222222222222, -0.009722222222222222, -0.009722222222222222, -0.009722222222222222, -0.009722222222222222, -0.009722222222222222]","[0, 0, 0, 0, 0, 0, 0]","[0, 0, 0, 0, 0, 0, 0]","[0, 0, 0, 0, 0, 0, 0]","[0.003944800002500415, 0.014995399978943169, 0.025372699979925528, 0.03509140000096522, 0.04409449998638593, 0.05309169998508878, 0.06388199998764321]",17.465058200003114,None,"[1, 1, 2, 2, 2, 2, 2]",50,17.465058200003114,None,17.465058200003114,None,17.465058200003114,None,17.465058200003114,None,17.465058200003114,None,17.465058200003114,None,,,test,1,2020_Jul_02_1948,tworatesteps,2020.1.3,226.0883326946048,
mainConds.xlsx,Abrupt,160,38,Rotated,0,1,1,1,0,38,38,38,,,,,,,,,"[-0.00625, -0.00625, -0.00625, -0.00625]","[-0.009722222222222222, -0.009722222222222222, -0.009722222222222222, -0.009722222222222222]","[0, 0, 0, 0]","[0, 0, 0, 0]","[0, 0, 0, 0]","[0.007040700002107769, 0.017153699998743832, 0.025930200004950166, 0.03601510002044961]",17.53809079999337,None,"[1, 1, 2, 2]",40,17.53809079999337,None,17.53809079999337,None,17.53809079999337,None,17.53809079999337,None,17.53809079999337,None,17.53809079999337,None,,,test,1,2020_Jul_02_1948,tworatesteps,2020.1.3,226.0883326946048,
mainConds.xlsx,Abrupt,160,39,Rotated,0,1,1,1,0,39,39,39,,,,,,,,,"[-0.00625, -0.00625, -0.00625, -0.00625, -0.00625, -0.00625, -0.00625]","[-0.009722222222222222, -0.009722222222222222, -0.009722222222222222, -0.009722222222222222, -0.009722222222222222, -0.009722222222222222, -0.009722222222222222]","[0, 0, 0, 0, 0, 0, 0]","[0, 0, 0, 0, 0, 0, 0]","[0, 0, 0, 0, 0, 0, 0]","[0.005730300006689504, 0.015390300017315894, 0.023710800014669076, 0.03361160002532415, 0.04255620000185445, 0.050101200002245605, 0.06410610000602901]",17.581999999994878,None,"[1, 1, 2, 2, 2, 2, 2]",50,17.581999999994878,None,17.581999999994878,None,17.581999999994878,None,17.581999999994878,None,17.581999999994878,None,17.581999999994878,None,,,test,1,2020_Jul_02_1948,tworatesteps,2020.1.3,226.0883326946048,
mainConds.xlsx,Abrupt,160,40,Rotated,0,1,1,1,0,40,40,40,,,,,,,,,"[-0.00625, -0.00625, -0.00625, -0.00625, -0.00625, -0.00625, -0.00625]","[-0.009722222222222222, -0.009722222222222222, -0.009722222222222222, -0.009722222222222222, -0.009722222222222222, -0.009722222222222222, -0.009722222222222222]","[0, 0, 0, 0, 0, 0, 0]","[0, 0, 0, 0, 0, 0, 0]","[0, 0, 0, 0, 0, 0, 0]","[0.005483599990839139, 0.015014000004157424, 0.025297799991676584, 0.03798680001636967, 0.04890080000041053, 0.057415899995248765, 0.06557050000992604]",17.65423699998064,None,"[1, 1, 2, 2, 2, 2, 2]",40,17.65423699998064,None,17.65423699998064,None,17.65423699998064,None,17.65423699998064,None,17.65423699998064,None,17.65423699998064,None,,,test,1,2020_Jul_02_1948,tworatesteps,2020.1.3,226.0883326946048,
mainConds.xlsx,Abrupt,160,41,Rotated,0,1,1,1,0,41,41,41,,,,,,,,,"[-0.00625, -0.00625, -0.00625, -0.00625]","[-0.009722222222222222, -0.009722222222222222, -0.009722222222222222, -0.009722222222222222]","[0, 0, 0, 0]","[0, 0, 0, 0]","[0, 0, 0, 0]","[0.00491150000016205, 0.0136767000076361, 0.02237840002635494, 0.031690800009528175]",17.7253249999776,None,"[1, 1, 2, 2]",50,17.7253249999776,None,17.7253249999776,None,17.7253249999776,None,17.7253249999776,None,17.7253249999776,None,17.7253249999776,None,,,test,1,2020_Jul_02_1948,tworatesteps,2020.1.3,226.0883326946048,
mainConds.xlsx,Abrupt,160,42,Rotated,0,1,1,1,0,42,42,42,,,,,,,,,"[-0.00625, -0.00625, -0.00625]","[-0.009722222222222222, -0.009722222222222222, -0.009722222222222222]","[0, 0, 0]","[0, 0, 0]","[0, 0, 0]","[0.003967999975429848, 0.012757799995597452, 0.020863299985649064]",17.76186499997857,None,"[1, 1, 2]",40,17.76186499997857,None,17.76186499997857,None,17.76186499997857,None,17.76186499997857,None,17.76186499997857,None,17.76186499997857,None,,,test,1,2020_Jul_02_1948,tworatesteps,2020.1.3,226.0883326946048,
mainConds.xlsx,Abrupt,160,43,Rotated,0,1,1,1,0,43,43,43,,,,,,,,,"[-0.00625, -0.00625, -0.00625, -0.00625, -0.00625, -0.00625]","[-0.009722222222222222, -0.009722222222222222, -0.009722222222222222, -0.009722222222222222, -0.009722222222222222, -0.009722222222222222]","[0, 0, 0, 0, 0, 0]","[0, 0, 0, 0, 0, 0]","[0, 0, 0, 0, 0, 0]","[0.00433380002505146, 0.012044400005834177, 0.019011500000488013, 0.025397200020961463, 0.032483300019521266, 0.03837100000237115]",17.788714700000128,None,"[1, 1, 2, 2, 2, 2]",50,17.788714700000128,None,17.788714700000128,None,17.788714700000128,None,17.788714700000128,None,17.788714700000128,None,17.788714700000128,None,,,test,1,2020_Jul_02_1948,tworatesteps,2020.1.3,226.0883326946048,
mainConds.xlsx,Abrupt,160,44,Rotated,0,1,1,1,0,44,44,44,,,,,,,,,"[-0.00625, -0.00625, -0.00625, -0.00625, -0.00625, -0.00625, -0.00625, -0.00625, -0.00625, -0.00625, -0.00625]","[-0.009722222222222222, -0.009722222222222222, -0.009722222222222222, -0.009722222222222222, -0.009722222222222222, -0.009722222222222222, -0.009722222222222222, -0.009722222222222222, -0.009722222222222222, -0.009722222222222222, -0.009722222222222222]","[0, 0, 0, 0, 0, 0, 0, 0, 0, 0, 0]","[0, 0, 0, 0, 0, 0, 0, 0, 0, 0, 0]","[0, 0, 0, 0, 0, 0, 0, 0, 0, 0, 0]","[0.0025769000058062375, 0.009696900000562891, 0.01636710000457242, 0.02700840000761673, 0.036809799988986924, 0.04596859999583103, 0.056494399992516264, 0.06393760000355542, 0.07061180000891909, 0.07690449999063276, 0.08373949999804609]",17.830906999995932,None,"[1, 1, 2, 2, 2, 2, 2, 2, 2, 2, 2]",40,17.830906999995932,None,17.830906999995932,None,17.830906999995932,None,17.830906999995932,None,17.830906999995932,None,17.830906999995932,None,,,test,1,2020_Jul_02_1948,tworatesteps,2020.1.3,226.0883326946048,
mainConds.xlsx,Abrupt,160,45,Rotated,0,1,1,1,0,45,45,45,,,,,,,,,"[-0.00625, -0.00625, -0.00625, -0.00625]","[-0.009722222222222222, -0.009722222222222222, -0.009722222222222222, -0.009722222222222222]","[0, 0, 0, 0]","[0, 0, 0, 0]","[0, 0, 0, 0]","[0.004484700009925291, 0.013953600020613521, 0.021907600021222606, 0.030121500021778047]",17.924660899996525,None,"[1, 1, 2, 2]",50,17.924660899996525,None,17.924660899996525,None,17.924660899996525,None,17.924660899996525,None,17.924660899996525,None,17.924660899996525,None,,,test,1,2020_Jul_02_1948,tworatesteps,2020.1.3,226.0883326946048,
mainConds.xlsx,Abrupt,160,46,Rotated,0,1,1,1,0,46,46,46,,,,,,,,,"[-0.00625, -0.00625, -0.00625, -0.00625]","[-0.009722222222222222, -0.009722222222222222, -0.009722222222222222, -0.009722222222222222]","[0, 0, 0, 0]","[0, 0, 0, 0]","[0, 0, 0, 0]","[0.0023241000017151237, 0.012516199989477172, 0.018707400013227016, 0.025807500001974404]",17.95820629998343,None,"[1, 1, 2, 2]",40,17.95820629998343,None,17.95820629998343,None,17.95820629998343,None,17.95820629998343,None,17.95820629998343,None,17.95820629998343,None,,,test,1,2020_Jul_02_1948,tworatesteps,2020.1.3,226.0883326946048,
mainConds.xlsx,Abrupt,160,47,Rotated,0,1,1,1,0,47,47,47,,,,,,,,,"[-0.00625, -0.00625, -0.00625]","[-0.009722222222222222, -0.009722222222222222, -0.009722222222222222]","[0, 0, 0]","[0, 0, 0]","[0, 0, 0]","[0.0026898999931290746, 0.009084100020118058, 0.017831600009230897]",17.98665379997692,None,"[1, 1, 2]",50,17.98665379997692,None,17.98665379997692,None,17.98665379997692,None,17.98665379997692,None,17.98665379997692,None,17.98665379997692,None,,,test,1,2020_Jul_02_1948,tworatesteps,2020.1.3,226.0883326946048,
mainConds.xlsx,Abrupt,160,48,Rotated,0,1,1,1,0,48,48,48,,,,,,,,,"[-0.00625, -0.00625, -0.00625, -0.00625, -0.00625]","[-0.009722222222222222, -0.009722222222222222, -0.009722222222222222, -0.009722222222222222, -0.009722222222222222]","[0, 0, 0, 0, 0]","[0, 0, 0, 0, 0]","[0, 0, 0, 0, 0]","[0.0038238999841269106, 0.011100400006398559, 0.01837800000794232, 0.02536219998728484, 0.0345194999827072]",18.011860700004036,None,"[1, 1, 2, 2, 2]",40,18.011860700004036,None,18.011860700004036,None,18.011860700004036,None,18.011860700004036,None,18.011860700004036,None,18.011860700004036,None,,,test,1,2020_Jul_02_1948,tworatesteps,2020.1.3,226.0883326946048,
mainConds.xlsx,Abrupt,160,49,Rotated,0,1,1,1,0,49,49,49,,,,,,,,,"[-0.00625, -0.00625, -0.00625, -0.00625, -0.00625, -0.00625, -0.00625]","[-0.009722222222222222, -0.009722222222222222, -0.009722222222222222, -0.009722222222222222, -0.009722222222222222, -0.009722222222222222, -0.009722222222222222]","[0, 0, 0, 0, 0, 0, 0]","[0, 0, 0, 0, 0, 0, 0]","[0, 0, 0, 0, 0, 0, 0]","[0.0031347000040113926, 0.0104838999977801, 0.017365300009259954, 0.023837999993702397, 0.030375400005141273, 0.037421700020786375, 0.043411899998318404]",18.05156399999396,None,"[1, 1, 2, 2, 2, 2, 2]",50,18.05156399999396,None,18.05156399999396,None,18.05156399999396,None,18.05156399999396,None,18.05156399999396,None,18.05156399999396,None,,,test,1,2020_Jul_02_1948,tworatesteps,2020.1.3,226.0883326946048,
mainConds.xlsx,Abrupt,160,50,Rotated,0,1,1,1,0,50,50,50,,,,,,,,,"[-0.00625, -0.00625, -0.00625, -0.00625]","[-0.009722222222222222, -0.009722222222222222, -0.009722222222222222, -0.009722222222222222]","[0, 0, 0, 0]","[0, 0, 0, 0]","[0, 0, 0, 0]","[0.0022548999986611307, 0.009403600008226931, 0.01661600000807084, 0.027072500000940636]",18.09890959999757,None,"[1, 1, 2, 2]",40,18.09890959999757,None,18.09890959999757,None,18.09890959999757,None,18.09890959999757,None,18.09890959999757,None,18.09890959999757,None,,,test,1,2020_Jul_02_1948,tworatesteps,2020.1.3,226.0883326946048,
mainConds.xlsx,Abrupt,160,51,Rotated,0,1,1,1,0,51,51,51,,,,,,,,,"[-0.00625, -0.00625, -0.00625, -0.00625]","[-0.009722222222222222, -0.009722222222222222, -0.009722222222222222, -0.009722222222222222]","[0, 0, 0, 0]","[0, 0, 0, 0]","[0, 0, 0, 0]","[0.0026787999959196895, 0.009933599998475984, 0.018097199994372204, 0.02559459998155944]",18.132633799978066,None,"[1, 1, 2, 2]",50,18.132633799978066,None,18.132633799978066,None,18.132633799978066,None,18.132633799978066,None,18.132633799978066,None,18.132633799978066,None,,,test,1,2020_Jul_02_1948,tworatesteps,2020.1.3,226.0883326946048,
mainConds.xlsx,Abrupt,160,52,Rotated,0,1,1,1,0,52,52,52,,,,,,,,,"[-0.00625, -0.00625, -0.00625]","[-0.009722222222222222, -0.009722222222222222, -0.009722222222222222]","[0, 0, 0]","[0, 0, 0]","[0, 0, 0]","[0.0026191999786533415, 0.009289799985708669, 0.017151299980469048]",18.163798199995654,None,"[1, 1, 2]",40,18.163798199995654,None,18.163798199995654,None,18.163798199995654,None,18.163798199995654,None,18.163798199995654,None,18.163798199995654,None,,,test,1,2020_Jul_02_1948,tworatesteps,2020.1.3,226.0883326946048,
mainConds.xlsx,Abrupt,160,53,Rotated,0,1,1,1,0,53,53,53,,,,,,,,,"[-0.00625, -0.00625, -0.00625, -0.00625, -0.00625, -0.00625, -0.00625, -0.00625, -0.00625, -0.00625, -0.00625]","[-0.009722222222222222, -0.009722222222222222, -0.009722222222222222, -0.009722222222222222, -0.009722222222222222, -0.009722222222222222, -0.009722222222222222, -0.009722222222222222, -0.009722222222222222, -0.009722222222222222, -0.009722222222222222]","[0, 0, 0, 0, 0, 0, 0, 0, 0, 0, 0]","[0, 0, 0, 0, 0, 0, 0, 0, 0, 0, 0]","[0, 0, 0, 0, 0, 0, 0, 0, 0, 0, 0]","[0.004833900020457804, 0.013244500005384907, 0.020302899996750057, 0.02673730000969954, 0.034738300018943846, 0.04094460001215339, 0.048649300006218255, 0.05428420001408085, 0.06271440000273287, 0.0686285000119824, 0.07651549999718554]",18.189388200000394,None,"[1, 1, 2, 2, 2, 2, 2, 2, 2, 2, 2]",50,18.189388200000394,None,18.189388200000394,None,18.189388200000394,None,18.189388200000394,None,18.189388200000394,None,18.189388200000394,None,,,test,1,2020_Jul_02_1948,tworatesteps,2020.1.3,226.0883326946048,
mainConds.xlsx,Abrupt,160,54,Rotated,0,1,1,1,0,54,54,54,,,,,,,,,"[-0.00625, -0.00625]","[-0.009722222222222222, -0.009722222222222222]","[0, 0]","[0, 0]","[0, 0]","[0.004197799979010597, 0.010974899982102215]",18.26986030000262,None,"[1, 1]",40,18.26986030000262,None,18.26986030000262,None,18.26986030000262,None,18.26986030000262,None,18.26986030000262,None,18.26986030000262,None,,,test,1,2020_Jul_02_1948,tworatesteps,2020.1.3,226.0883326946048,
mainConds.xlsx,Abrupt,160,55,Rotated,0,1,1,1,0,55,55,55,,,,,,,,,"[-0.00625, -0.00625, -0.00625, -0.00625, -0.00625, -0.00625, -0.00625]","[-0.009722222222222222, -0.009722222222222222, -0.009722222222222222, -0.009722222222222222, -0.009722222222222222, -0.009722222222222222, -0.009722222222222222]","[0, 0, 0, 0, 0, 0, 0]","[0, 0, 0, 0, 0, 0, 0]","[0, 0, 0, 0, 0, 0, 0]","[0.0024796999932732433, 0.008841400005621836, 0.01543840000522323, 0.021424700011266395, 0.028025700012221932, 0.03453949998947792, 0.04272950001177378]",18.285688000003574,None,"[1, 1, 2, 2, 2, 2, 2]",50,18.285688000003574,None,18.285688000003574,None,18.285688000003574,None,18.285688000003574,None,18.285688000003574,None,18.285688000003574,None,,,test,1,2020_Jul_02_1948,tworatesteps,2020.1.3,226.0883326946048,
mainConds.xlsx,Abrupt,160,56,Rotated,0,1,1,1,0,56,56,56,,,,,,,,,"[-0.00625, -0.00625]","[-0.009722222222222222, -0.009722222222222222]","[0, 0]","[0, 0]","[0, 0]","[0.0048423999978695065, 0.012022999988403171]",18.337430999992648,None,"[1, 1]",40,18.337430999992648,None,18.337430999992648,None,18.337430999992648,None,18.337430999992648,None,18.337430999992648,None,18.337430999992648,None,,,test,1,2020_Jul_02_1948,tworatesteps,2020.1.3,226.0883326946048,
mainConds.xlsx,Abrupt,160,57,Rotated,0,1,1,1,0,57,57,57,,,,,,,,,"[-0.00625, -0.00625, -0.00625, -0.00625, -0.00625, -0.00625, -0.00625, -0.00625, -0.00625, -0.00625, -0.00625, -0.00625, -0.00625, -0.00625, -0.00625, -0.00625, -0.00625, -0.00625, -0.00625, -0.00625, -0.00625, -0.00625, -0.00625]","[-0.009722222222222222, -0.009722222222222222, -0.009722222222222222, -0.009722222222222222, -0.009722222222222222, -0.009722222222222222, -0.009722222222222222, -0.009722222222222222, -0.009722222222222222, -0.009722222222222222, -0.009722222222222222, -0.009722222222222222, -0.009722222222222222, -0.009722222222222222, -0.009722222222222222, -0.009722222222222222, -0.009722222222222222, -0.009722222222222222, -0.009722222222222222, -0.009722222222222222, -0.009722222222222222, -0.009722222222222222, -0.009722222222222222]","[0, 0, 0, 0, 0, 0, 0, 0, 0, 0, 0, 0, 0, 0, 0, 0, 0, 0, 0, 0, 0, 0, 0]","[0, 0, 0, 0, 0, 0, 0, 0, 0, 0, 0, 0, 0, 0, 0, 0, 0, 0, 0, 0, 0, 0, 0]","[0, 0, 0, 0, 0, 0, 0, 0, 0, 0, 0, 0, 0, 0, 0, 0, 0, 0, 0, 0, 0, 0, 0]","[0.0029014000028837472, 0.009789600007934496, 0.01682370001799427, 0.02506430001812987, 0.031844800018006936, 0.03924770001322031, 0.04532500001369044, 0.05265140000847168, 0.05832500001997687, 0.06595069999457337, 0.07238450000295416, 0.08031310001388192, 0.0869146000186447, 0.09446290001505986, 0.10077950000413693, 0.10796150000533089, 0.11452430000645109, 0.12103350000688806, 0.1273628000053577, 0.1344247999950312, 0.1403878999990411, 0.1478689000068698, 0.15636930000619031]",18.353884999989532,None,"[1, 1, 2, 2, 2, 2, 2, 2, 2, 2, 2, 2, 2, 2, 2, 2, 2, 2, 2, 2, 2, 2, 2]",50,18.353884999989532,None,18.353884999989532,None,18.353884999989532,None,18.353884999989532,None,18.353884999989532,None,18.353884999989532,None,,,test,1,2020_Jul_02_1948,tworatesteps,2020.1.3,226.0883326946048,
mainConds.xlsx,Abrupt,160,58,Rotated,0,1,1,1,0,58,58,58,,,,,,,,,"[-0.00625, -0.00625, -0.00625, -0.00625, -0.00625, -0.00625, -0.00625, -0.00625]","[-0.009722222222222222, -0.009722222222222222, -0.009722222222222222, -0.009722222222222222, -0.009722222222222222, -0.009722222222222222, -0.009722222222222222, -0.009722222222222222]","[0, 0, 0, 0, 0, 0, 0, 0]","[0, 0, 0, 0, 0, 0, 0, 0]","[0, 0, 0, 0, 0, 0, 0, 0]","[0.002412200003163889, 0.008494300011079758, 0.015157799993176013, 0.02277690000482835, 0.0292022000066936, 0.03635219999705441, 0.042029500007629395, 0.05077649999293499]",18.51495429998613,None,"[1, 1, 2, 2, 2, 2, 2, 2]",40,18.51495429998613,None,18.51495429998613,None,18.51495429998613,None,18.51495429998613,None,18.51495429998613,None,18.51495429998613,None,,,test,1,2020_Jul_02_1948,tworatesteps,2020.1.3,226.0883326946048,
mainConds.xlsx,Abrupt,160,59,Rotated,0,1,1,1,0,59,59,59,,,,,,,,,"[-0.00625, -0.00625, -0.00625, -0.00625, -0.00625, -0.00625, -0.00625, -0.00625, -0.00625, -0.00625, -0.00625, -0.00625]","[-0.009722222222222222, -0.009722222222222222, -0.009722222222222222, -0.009722222222222222, -0.009722222222222222, -0.009722222222222222, -0.009722222222222222, -0.009722222222222222, -0.009722222222222222, -0.009722222222222222, -0.009722222222222222, -0.009722222222222222]","[0, 0, 0, 0, 0, 0, 0, 0, 0, 0, 0, 0]","[0, 0, 0, 0, 0, 0, 0, 0, 0, 0, 0, 0]","[0, 0, 0, 0, 0, 0, 0, 0, 0, 0, 0, 0]","[0.00295429999823682, 0.009983199997805059, 0.017294199991738424, 0.02533860001130961, 0.03342690001591109, 0.040208399994298816, 0.04713839999749325, 0.054732499993406236, 0.06350230000680313, 0.06995710000046529, 0.07806930001243018, 0.08735119999619201]",18.573216999997385,None,"[1, 1, 2, 2, 2, 2, 2, 2, 2, 2, 2, 2]",50,18.573216999997385,None,18.573216999997385,None,18.573216999997385,None,18.573216999997385,None,18.573216999997385,None,18.573216999997385,None,,,test,1,2020_Jul_02_1948,tworatesteps,2020.1.3,226.0883326946048,
mainConds.xlsx,Abrupt,160,60,Rotated,0,1,1,1,0,60,60,60,,,,,,,,,"[-0.00625, -0.00625, -0.00625]","[-0.009722222222222222, -0.009722222222222222, -0.009722222222222222]","[0, 0, 0]","[0, 0, 0]","[0, 0, 0]","[0.003787099994951859, 0.013168700010282919, 0.0221468000090681]",18.669042499997886,None,"[1, 1, 2]",40,18.669042499997886,None,18.669042499997886,None,18.669042499997886,None,18.669042499997886,None,18.669042499997886,None,18.669042499997886,None,,,test,1,2020_Jul_02_1948,tworatesteps,2020.1.3,226.0883326946048,
mainConds.xlsx,Abrupt,160,61,Rotated,0,1,1,1,0,61,61,61,,,,,,,,,"[-0.00625, -0.00625, -0.00625, -0.00625, -0.00625, -0.00625, -0.00625, -0.00625, -0.00625, -0.00625, -0.00625, -0.00625, -0.00625, -0.00625, -0.00625]","[-0.009722222222222222, -0.009722222222222222, -0.009722222222222222, -0.009722222222222222, -0.009722222222222222, -0.009722222222222222, -0.009722222222222222, -0.009722222222222222, -0.009722222222222222, -0.009722222222222222, -0.009722222222222222, -0.009722222222222222, -0.009722222222222222, -0.009722222222222222, -0.009722222222222222]","[0, 0, 0, 0, 0, 0, 0, 0, 0, 0, 0, 0, 0, 0, 0]","[0, 0, 0, 0, 0, 0, 0, 0, 0, 0, 0, 0, 0, 0, 0]","[0, 0, 0, 0, 0, 0, 0, 0, 0, 0, 0, 0, 0, 0, 0]","[0.0038299000007100403, 0.0123639999947045, 0.020165399997495115, 0.02709679998224601, 0.034650899993721396, 0.040752200002316386, 0.047345200000563636, 0.05347359998268075, 0.06059569999342784, 0.06650230000377633, 0.07320099999196827, 0.07952649999060668, 0.08726729999762028, 0.09416849998524413, 0.10353659998509102]",18.695561700005783,None,"[1, 1, 2, 2, 2, 2, 2, 2, 2, 2, 2, 2, 2, 2, 2]",50,18.695561700005783,None,18.695561700005783,None,18.695561700005783,None,18.695561700005783,None,18.695561700005783,None,18.695561700005783,None,,,test,1,2020_Jul_02_1948,tworatesteps,2020.1.3,226.0883326946048,
mainConds.xlsx,Abrupt,160,62,Rotated,0,1,1,1,0,62,62,62,,,,,,,,,"[-0.00625, -0.00625, -0.00625, -0.00625]","[-0.009722222222222222, -0.009722222222222222, -0.009722222222222222, -0.009722222222222222]","[0, 0, 0, 0]","[0, 0, 0, 0]","[0, 0, 0, 0]","[0.0029907000134699047, 0.011981000017840415, 0.019390700006624684, 0.028393900021910667]",18.805298099992797,None,"[1, 1, 2, 2]",40,18.805298099992797,None,18.805298099992797,None,18.805298099992797,None,18.805298099992797,None,18.805298099992797,None,18.805298099992797,None,,,test,1,2020_Jul_02_1948,tworatesteps,2020.1.3,226.0883326946048,
mainConds.xlsx,Abrupt,160,63,Rotated,0,1,1,1,0,63,63,63,,,,,,,,,"[-0.00625, -0.00625, -0.00625, -0.00625, -0.00625, -0.00625, -0.00625, -0.00625, -0.00625, -0.00625, -0.00625, -0.00625]","[-0.009722222222222222, -0.009722222222222222, -0.009722222222222222, -0.009722222222222222, -0.009722222222222222, -0.009722222222222222, -0.009722222222222222, -0.009722222222222222, -0.009722222222222222, -0.009722222222222222, -0.009722222222222222, -0.009722222222222222]","[0, 0, 0, 0, 0, 0, 0, 0, 0, 0, 0, 0]","[0, 0, 0, 0, 0, 0, 0, 0, 0, 0, 0, 0]","[0, 0, 0, 0, 0, 0, 0, 0, 0, 0, 0, 0]","[0.0028215000056661665, 0.010574400017503649, 0.01748130001942627, 0.02443610000773333, 0.030297700024675578, 0.037140200001886114, 0.043596800009254366, 0.05120260000694543, 0.05794450000394136, 0.06550460000289604, 0.07284320000326261, 0.07980810001026839]",18.839428699982818,None,"[1, 1, 2, 2, 2, 2, 2, 2, 2, 2, 2, 2]",50,18.839428699982818,None,18.839428699982818,None,18.839428699982818,None,18.839428699982818,None,18.839428699982818,None,18.839428699982818,None,,,test,1,2020_Jul_02_1948,tworatesteps,2020.1.3,226.0883326946048,
mainConds.xlsx,Abrupt,160,64,Rotated,0,1,1,1,0,64,64,64,,,,,,,,,"[-0.00625, -0.00625, -0.00625, -0.00625, -0.00625, -0.00625, -0.00625, -0.00625, -0.00625, -0.00625, -0.00625, -0.00625, -0.00625, -0.00625, -0.00625, -0.00625, -0.00625, -0.00625, -0.00625, -0.00625, -0.00625, -0.00625, -0.00625]","[-0.009722222222222222, -0.009722222222222222, -0.009722222222222222, -0.009722222222222222, -0.009722222222222222, -0.009722222222222222, -0.009722222222222222, -0.009722222222222222, -0.009722222222222222, -0.009722222222222222, -0.009722222222222222, -0.009722222222222222, -0.009722222222222222, -0.009722222222222222, -0.009722222222222222, -0.009722222222222222, -0.009722222222222222, -0.009722222222222222, -0.009722222222222222, -0.009722222222222222, -0.009722222222222222, -0.009722222222222222, -0.009722222222222222]","[0, 0, 0, 0, 0, 0, 0, 0, 0, 0, 0, 0, 0, 0, 0, 0, 0, 0, 0, 0, 0, 0, 0]","[0, 0, 0, 0, 0, 0, 0, 0, 0, 0, 0, 0, 0, 0, 0, 0, 0, 0, 0, 0, 0, 0, 0]","[0, 0, 0, 0, 0, 0, 0, 0, 0, 0, 0, 0, 0, 0, 0, 0, 0, 0, 0, 0, 0, 0, 0]","[0.0026728000084403902, 0.009464900009334087, 0.016152800002600998, 0.022360700007993728, 0.028835300006903708, 0.03509640000993386, 0.04223930000443943, 0.04810489999363199, 0.05504169999039732, 0.0612437000090722, 0.06801429999177344, 0.07537649999721907, 0.08232519999728538, 0.08809320000000298, 0.0960518000065349, 0.10249779999139719, 0.10933740000473335, 0.11483939999016002, 0.12283370000659488, 0.1290617999911774, 0.13596220000181347, 0.14242819999344647, 0.15069750000839122]",18.92581029998837,None,"[1, 1, 2, 2, 2, 2, 2, 2, 2, 2, 2, 2, 2, 2, 2, 2, 2, 2, 2, 2, 2, 2, 2]",40,18.92581029998837,None,18.92581029998837,None,18.92581029998837,None,18.92581029998837,None,18.92581029998837,None,18.92581029998837,None,,,test,1,2020_Jul_02_1948,tworatesteps,2020.1.3,226.0883326946048,
mainConds.xlsx,Abrupt,160,65,Rotated,0,1,1,1,0,65,65,65,,,,,,,,,"[-0.00625, -0.00625, -0.00625, -0.00625, -0.00625, -0.00625, -0.00625, -0.00625, -0.00625, -0.00625, -0.00625]","[-0.009722222222222222, -0.009722222222222222, -0.009722222222222222, -0.009722222222222222, -0.009722222222222222, -0.009722222222222222, -0.009722222222222222, -0.009722222222222222, -0.009722222222222222, -0.009722222222222222, -0.009722222222222222]","[0, 0, 0, 0, 0, 0, 0, 0, 0, 0, 0]","[0, 0, 0, 0, 0, 0, 0, 0, 0, 0, 0]","[0, 0, 0, 0, 0, 0, 0, 0, 0, 0, 0]","[0.004038200015202165, 0.012619300017831847, 0.018953799997689202, 0.02639159999671392, 0.033521900011692196, 0.0395215000025928, 0.04651330001070164, 0.05262110001058318, 0.05950990002020262, 0.06534550001379102, 0.07388490001903847]",19.084225800004788,None,"[1, 1, 2, 2, 2, 2, 2, 2, 2, 2, 2]",50,19.084225800004788,None,19.084225800004788,None,19.084225800004788,None,19.084225800004788,None,19.084225800004788,None,19.084225800004788,None,,,test,1,2020_Jul_02_1948,tworatesteps,2020.1.3,226.0883326946048,
mainConds.xlsx,Abrupt,160,66,Rotated,0,1,1,1,0,66,66,66,,,,,,,,,"[-0.00625, -0.00625, -0.00625, -0.00625, -0.00625, -0.00625, -0.00625, -0.00625, -0.00625, -0.00625, -0.00625, -0.00625]","[-0.009722222222222222, -0.009722222222222222, -0.009722222222222222, -0.009722222222222222, -0.009722222222222222, -0.009722222222222222, -0.009722222222222222, -0.009722222222222222, -0.009722222222222222, -0.009722222222222222, -0.009722222222222222, -0.009722222222222222]","[0, 0, 0, 0, 0, 0, 0, 0, 0, 0, 0, 0]","[0, 0, 0, 0, 0, 0, 0, 0, 0, 0, 0, 0]","[0, 0, 0, 0, 0, 0, 0, 0, 0, 0, 0, 0]","[0.00436769999214448, 0.012388300005113706, 0.019074599986197427, 0.026341099990531802, 0.03354659999604337, 0.04069980001077056, 0.04825580000760965, 0.056651499995496124, 0.06318160000955686, 0.07043560000602156, 0.0768716000020504, 0.08383290001074784]",19.165237099980004,None,"[1, 1, 2, 2, 2, 2, 2, 2, 2, 2, 2, 2]",40,19.165237099980004,None,19.165237099980004,None,19.165237099980004,None,19.165237099980004,None,19.165237099980004,None,19.165237099980004,None,,,test,1,2020_Jul_02_1948,tworatesteps,2020.1.3,226.0883326946048,
mainConds.xlsx,Abrupt,160,67,Rotated,0,1,1,1,0,67,67,67,,,,,,,,,"[-0.00625, -0.00625, -0.00625]","[-0.009722222222222222, -0.009722222222222222, -0.009722222222222222]","[0, 0, 0]","[0, 0, 0]","[0, 0, 0]","[0.0024615000002086163, 0.01101139999809675, 0.020414500002516434]",19.25368150000577,None,"[1, 1, 2]",50,19.25368150000577,None,19.25368150000577,None,19.25368150000577,None,19.25368150000577,None,19.25368150000577,None,19.25368150000577,None,,,test,1,2020_Jul_02_1948,tworatesteps,2020.1.3,226.0883326946048,
mainConds.xlsx,Abrupt,160,68,Rotated,0,1,1,1,0,68,68,68,,,,,,,,,"[-0.00625, -0.00625, -0.00625, -0.00625, -0.00625, -0.00625, -0.00625, -0.00625, -0.00625, -0.00625, -0.00625]","[-0.009722222222222222, -0.009722222222222222, -0.009722222222222222, -0.009722222222222222, -0.009722222222222222, -0.009722222222222222, -0.009722222222222222, -0.009722222222222222, -0.009722222222222222, -0.009722222222222222, -0.009722222222222222]","[0, 0, 0, 0, 0, 0, 0, 0, 0, 0, 0]","[0, 0, 0, 0, 0, 0, 0, 0, 0, 0, 0]","[0, 0, 0, 0, 0, 0, 0, 0, 0, 0, 0]","[0.0026205000176560134, 0.010888200020417571, 0.018279400013852865, 0.025419000012334436, 0.0324043000000529, 0.04004059999715537, 0.04873730000690557, 0.055848200019681826, 0.06392119999509305, 0.07200840002042241, 0.07919750001747161]",19.279013899998972,None,"[1, 1, 2, 2, 2, 2, 2, 2, 2, 2, 2]",40,19.279013899998972,None,19.279013899998972,None,19.279013899998972,None,19.279013899998972,None,19.279013899998972,None,19.279013899998972,None,,,test,1,2020_Jul_02_1948,tworatesteps,2020.1.3,226.0883326946048,
